participant,session,date,exp_name,frame_rate,absolute_time,trigger_time,trial_type,trial_num,word,response_time,reponse_key
95,1,2023-01-27_10h18.50.589,task-selfref_run-01,59.657684208078,1674832746.447204,,instructions,,,,
95,1,2023-01-27_10h18.50.589,task-selfref_run-01,59.657684208078,1674832799.0181534,67.66770330000008,fixation,1,,,
95,1,2023-01-27_10h18.50.589,task-selfref_run-01,59.657684208078,1674832802.5348938,71.18448369999987,fixation,1,,,
95,1,2023-01-27_10h18.50.589,task-selfref_run-01,59.657684208078,1674832808.1176038,76.76709449999998,fixation,1,,,
95,1,2023-01-27_10h18.50.589,task-selfref_run-01,59.657684208078,1674832811.634104,80.2836886,fixation,1,,,
95,1,2023-01-27_10h18.50.589,task-selfref_run-01,59.657684208078,1674832817.216887,85.86647970000013,fixation,1,,,
95,1,2023-01-27_10h18.50.589,task-selfref_run-01,59.657684208078,1674832820.73331,89.38289059999988,fixation,1,,,
95,1,2023-01-27_10h18.50.589,task-selfref_run-01,59.657684208078,1674832865.1077712,0,trigger,,,,
95,1,2023-01-27_10h18.50.589,task-selfref_run-01,59.657684208078,1674832873.150738,8.042522199999894,fixation,1,,,
95,1,2023-01-27_10h18.50.589,task-selfref_run-01,59.657684208078,1674832875.7995555,10.69133839999995,fixation,1,,,
95,1,2023-01-27_10h18.50.589,task-selfref_run-01,59.657684208078,1674832875.8642335,10.756563999999798,word_presentation,1,wise,,
95,1,2023-01-27_10h18.50.589,task-selfref_run-01,59.657684208078,1674832877.1668644,12.058975200000077,response,1,wise,1.367119300000013,3
95,1,2023-01-27_10h18.50.589,task-selfref_run-01,59.657684208078,1674832879.3850565,14.276838100000077,fixation,1,,,
95,1,2023-01-27_10h18.50.589,task-selfref_run-01,59.657684208078,1674832879.4667819,14.359017400000084,word_presentation,1,violent,,
95,1,2023-01-27_10h18.50.589,task-selfref_run-01,59.657684208078,1674832881.046171,15.93880799999988,response,1,violent,1.6614633000003778,2
95,1,2023-01-27_10h18.50.589,task-selfref_run-01,59.657684208078,1674832882.4088812,17.3006462999997,fixation,1,,,
95,1,2023-01-27_10h18.50.589,task-selfref_run-01,59.657684208078,1674832882.4641185,17.356238200000007,word_presentation,1,unpleasant,,
95,1,2023-01-27_10h18.50.589,task-selfref_run-01,59.657684208078,1674832883.9134657,18.805770500000108,response,1,unpleasant,1.5045709999999417,2
95,1,2023-01-27_10h18.50.589,task-selfref_run-01,59.657684208078,1674832886.6499135,21.541758800000025,fixation,1,,,
95,1,2023-01-27_10h18.50.589,task-selfref_run-01,59.657684208078,1674832886.7304196,21.622686899999735,word_presentation,1,triumphant,,
95,1,2023-01-27_10h18.50.589,task-selfref_run-01,59.657684208078,1674832888.2097743,23.101557299999968,response,1,triumphant,1.5592359000002034,3
95,1,2023-01-27_10h18.50.589,task-selfref_run-01,59.657684208078,1674832891.4641702,26.355937499999982,fixation,1,,,
95,1,2023-01-27_10h18.50.589,task-selfref_run-01,59.657684208078,1674832891.5302503,26.422511499999928,word_presentation,1,neat,,
95,1,2023-01-27_10h18.50.589,task-selfref_run-01,59.657684208078,1674832892.4524612,27.344798000000083,response,1,neat,0.9883432999999968,3
95,1,2023-01-27_10h18.50.589,task-selfref_run-01,59.657684208078,1674832895.121442,30.013304699999935,fixation,1,,,
95,1,2023-01-27_10h18.50.589,task-selfref_run-01,59.657684208078,1674832895.180353,30.072469799999908,word_presentation,1,vindictive,,
95,1,2023-01-27_10h18.50.589,task-selfref_run-01,59.657684208078,1674832905.6307032,40.52255689999993,fixation,1,,,
95,1,2023-01-27_10h18.50.589,task-selfref_run-01,59.657684208078,1674832908.2139037,43.105677900000046,fixation,1,,,
95,1,2023-01-27_10h18.50.589,task-selfref_run-01,59.657684208078,1674832908.2630885,43.15527659999998,word_presentation,1,tiresome,,
95,1,2023-01-27_10h18.50.589,task-selfref_run-01,59.657684208078,1674832912.1403944,47.03226519999998,fixation,1,,,
95,1,2023-01-27_10h18.50.589,task-selfref_run-01,59.657684208078,1674832912.1792057,47.07122799999979,word_presentation,1,sunny,,
95,1,2023-01-27_10h18.50.589,task-selfref_run-01,59.657684208078,1674832913.1326163,48.024738199999774,response,1,sunny,0.9919525000000249,3
95,1,2023-01-27_10h18.50.589,task-selfref_run-01,59.657684208078,1674832915.92406,50.81583789999968,fixation,1,,,
95,1,2023-01-27_10h18.50.589,task-selfref_run-01,59.657684208078,1674832915.979479,50.87161419999984,word_presentation,1,glorious,,
95,1,2023-01-27_10h18.50.589,task-selfref_run-01,59.657684208078,1674832917.0797462,51.97172980000005,response,1,glorious,1.155344299999797,2
95,1,2023-01-27_10h18.50.589,task-selfref_run-01,59.657684208078,1674832920.1363497,55.02888979999989,fixation,1,,,
95,1,2023-01-27_10h18.50.589,task-selfref_run-01,59.657684208078,1674832920.196422,55.08865590000005,word_presentation,1,kind,,
95,1,2023-01-27_10h18.50.589,task-selfref_run-01,59.657684208078,1674832921.225292,56.11775209999951,response,1,kind,1.0883419999995567,3
95,1,2023-01-27_10h18.50.589,task-selfref_run-01,59.657684208078,1674832924.6164234,59.508303299999625,fixation,1,,,
95,1,2023-01-27_10h18.50.589,task-selfref_run-01,59.657684208078,1674832924.6792119,59.5713740999995,word_presentation,1,weak,,
95,1,2023-01-27_10h18.50.589,task-selfref_run-01,59.657684208078,1674832928.5607274,63.452511899999536,fixation,1,,,
95,1,2023-01-27_10h18.50.589,task-selfref_run-01,59.657684208078,1674832928.6124587,63.50462130000005,word_presentation,1,immature,,
95,1,2023-01-27_10h18.50.589,task-selfref_run-01,59.657684208078,1674832930.8710272,65.76369449999993,response,1,immature,2.310659700000542,2
95,1,2023-01-27_10h18.50.589,task-selfref_run-01,59.657684208078,1674832939.0635707,73.95534869999983,fixation,1,,,
95,1,2023-01-27_10h18.50.589,task-selfref_run-01,59.657684208078,1674832941.645872,76.53772400000025,fixation,1,,,
95,1,2023-01-27_10h18.50.589,task-selfref_run-01,59.657684208078,1674832941.7117689,76.60394810000025,word_presentation,1,greedy,,
95,1,2023-01-27_10h18.50.589,task-selfref_run-01,59.657684208078,1674832943.0700884,77.9626217,response,1,greedy,1.4243760999997903,2
95,1,2023-01-27_10h18.50.589,task-selfref_run-01,59.657684208078,1674832945.272407,80.16427090000025,fixation,1,,,
95,1,2023-01-27_10h18.50.589,task-selfref_run-01,59.657684208078,1674832945.328549,80.22060680000004,word_presentation,1,merry,,
95,1,2023-01-27_10h18.50.589,task-selfref_run-01,59.657684208078,1674832946.5498939,81.44163290000006,response,1,merry,1.2768088000002535,3
95,1,2023-01-27_10h18.50.589,task-selfref_run-01,59.657684208078,1674832949.6758363,84.56769659999964,fixation,1,,,
95,1,2023-01-27_10h18.50.589,task-selfref_run-01,59.657684208078,1674832949.7448545,84.63711420000027,word_presentation,1,romantic,,
95,1,2023-01-27_10h18.50.589,task-selfref_run-01,59.657684208078,1674832952.0484853,86.94064690000005,response,1,romantic,2.372425700000349,3
95,1,2023-01-27_10h18.50.589,task-selfref_run-01,59.657684208078,1674832953.8511796,88.74302880000005,fixation,1,,,
95,1,2023-01-27_10h18.50.589,task-selfref_run-01,59.657684208078,1674832953.9110243,88.80305970000018,word_presentation,1,terrible,,
95,1,2023-01-27_10h18.50.589,task-selfref_run-01,59.657684208078,1674832954.7172234,89.60962659999996,response,1,terrible,0.8660922999997638,2
95,1,2023-01-27_10h18.50.589,task-selfref_run-01,59.657684208078,1674832957.4121091,92.30387999999994,fixation,1,,,
95,1,2023-01-27_10h18.50.589,task-selfref_run-01,59.657684208078,1674832957.4799228,92.37203329999966,word_presentation,1,immoral,,
95,1,2023-01-27_10h18.50.589,task-selfref_run-01,59.657684208078,1674832958.9762592,93.86845700000003,response,1,immoral,1.564057700000376,3
95,1,2023-01-27_10h18.50.589,task-selfref_run-01,59.657684208078,1674832959.5193102,94.41160900000023,response,1,immoral,2.1072095999998055,2
95,1,2023-01-27_10h18.50.589,task-selfref_run-01,59.657684208078,1674832959.7861001,94.67852900000025,response,1,immoral,2.374129599999833,2
95,1,2023-01-27_10h18.50.589,task-selfref_run-01,59.657684208078,1674832960.922777,95.81462160000001,fixation,1,,,
95,1,2023-01-27_10h18.50.589,task-selfref_run-01,59.657684208078,1674832960.9773521,95.86941840000009,word_presentation,1,open,,
95,1,2023-01-27_10h18.50.589,task-selfref_run-01,59.657684208078,1674832962.0757546,96.96755280000025,response,1,open,1.1524490000001606,3
95,1,2023-01-27_10h18.50.589,task-selfref_run-01,59.657684208078,1674832971.4453213,106.3371001999999,fixation,1,,,
95,1,2023-01-27_10h18.50.589,task-selfref_run-01,59.657684208078,1674832974.0286558,108.92051549999951,fixation,1,,,
95,1,2023-01-27_10h18.50.589,task-selfref_run-01,59.657684208078,1674832974.0773063,108.96935809999968,word_presentation,1,cynical,,
95,1,2023-01-27_10h18.50.589,task-selfref_run-01,59.657684208078,1674832980.6846905,115.57653160000018,fixation,1,,,
95,1,2023-01-27_10h18.50.589,task-selfref_run-01,59.657684208078,1674832980.7268674,115.61901290000014,word_presentation,1,composed,,
95,1,2023-01-27_10h18.50.589,task-selfref_run-01,59.657684208078,1674832982.5764637,117.46855639999967,response,1,composed,1.8915163000001485,3
95,1,2023-01-27_10h18.50.589,task-selfref_run-01,59.657684208078,1674832983.7949772,118.68675699999994,fixation,1,,,
95,1,2023-01-27_10h18.50.589,task-selfref_run-01,59.657684208078,1674832983.86031,118.75257360000023,word_presentation,1,malicious,,
95,1,2023-01-27_10h18.50.589,task-selfref_run-01,59.657684208078,1674832984.9305727,119.82252839999956,response,1,malicious,1.1352036999996926,2
95,1,2023-01-27_10h18.50.589,task-selfref_run-01,59.657684208078,1674832987.640582,122.53270389999989,fixation,1,,,
95,1,2023-01-27_10h18.50.589,task-selfref_run-01,59.657684208078,1674832987.694272,122.58642480000026,word_presentation,1,insensitive,,
95,1,2023-01-27_10h18.50.589,task-selfref_run-01,59.657684208078,1674832991.231911,126.12376300000005,fixation,1,,,
95,1,2023-01-27_10h18.50.589,task-selfref_run-01,59.657684208078,1674832991.2771742,126.16928710000002,word_presentation,1,outgoing,,
95,1,2023-01-27_10h18.50.589,task-selfref_run-01,59.657684208078,1674832992.3294306,127.22134700000015,response,1,outgoing,1.097089099999721,3
95,1,2023-01-27_10h18.50.589,task-selfref_run-01,59.657684208078,1674832994.852459,129.74465089999967,fixation,1,,,
95,1,2023-01-27_10h18.50.589,task-selfref_run-01,59.657684208078,1674832994.9097035,129.8017963999996,word_presentation,1,daring,,
95,1,2023-01-27_10h18.50.589,task-selfref_run-01,59.657684208078,1674832996.7511673,131.6434830000003,response,1,daring,1.898284799999601,3
95,1,2023-01-27_10h18.50.589,task-selfref_run-01,59.657684208078,1674833005.377347,140.26922299999978,fixation,1,,,
95,1,2023-01-27_10h18.50.589,task-selfref_run-01,59.657684208078,1674833007.9603584,142.85252059999993,fixation,1,,,
95,1,2023-01-27_10h18.50.589,task-selfref_run-01,59.657684208078,1674833008.0263221,142.91861130000007,word_presentation,1,obnoxious,,
95,1,2023-01-27_10h18.50.589,task-selfref_run-01,59.657684208078,1674833011.1370885,146.0289571999997,fixation,1,,,
95,1,2023-01-27_10h18.50.589,task-selfref_run-01,59.657684208078,1674833011.1759856,146.06810639999958,word_presentation,1,beautiful,,
95,1,2023-01-27_10h18.50.589,task-selfref_run-01,59.657684208078,1674833015.0304854,149.92226489999985,fixation,1,,,
95,1,2023-01-27_10h18.50.589,task-selfref_run-01,59.657684208078,1674833015.076155,149.96821429999954,word_presentation,1,independent,,
95,1,2023-01-27_10h18.50.589,task-selfref_run-01,59.657684208078,1674833016.7665792,151.65851520000024,response,1,independent,1.7357184000002235,3
95,1,2023-01-27_10h18.50.589,task-selfref_run-01,59.657684208078,1674833018.2637274,153.15557899999976,fixation,1,,,
95,1,2023-01-27_10h18.50.589,task-selfref_run-01,59.657684208078,1674833018.3274834,153.21963209999967,word_presentation,1,healthy,,
95,1,2023-01-27_10h18.50.589,task-selfref_run-01,59.657684208078,1674833019.1496892,154.0415079999998,response,1,healthy,0.8853703000004316,3
95,1,2023-01-27_10h18.50.589,task-selfref_run-01,59.657684208078,1674833022.9463823,157.8382262,fixation,1,,,
95,1,2023-01-27_10h18.50.589,task-selfref_run-01,59.657684208078,1674833023.0088162,157.9008415000003,word_presentation,1,smug,,
95,1,2023-01-27_10h18.50.589,task-selfref_run-01,59.657684208078,1674833026.6502619,161.54212140000027,fixation,1,,,
95,1,2023-01-27_10h18.50.589,task-selfref_run-01,59.657684208078,1674833026.6920757,161.58403239999961,word_presentation,1,negligent,,
95,1,2023-01-27_10h18.50.589,task-selfref_run-01,59.657684208078,1674833028.4035046,163.29526750000014,response,1,negligent,1.7525474999993094,2
95,1,2023-01-27_10h18.50.589,task-selfref_run-01,59.657684208078,1674833037.1759634,172.06784019999986,fixation,1,,,
95,1,2023-01-27_10h18.50.589,task-selfref_run-01,59.657684208078,1674833039.7777717,174.6696305999999,fixation,1,,,
95,1,2023-01-27_10h18.50.589,task-selfref_run-01,59.657684208078,1674833039.8413806,174.73347400000011,word_presentation,1,unproductive,,
95,1,2023-01-27_10h18.50.589,task-selfref_run-01,59.657684208078,1674833041.2088275,176.10137929999973,response,1,unproductive,1.4312496000002284,2
95,1,2023-01-27_10h18.50.589,task-selfref_run-01,59.657684208078,1674833044.9424577,179.8343332999998,fixation,1,,,
95,1,2023-01-27_10h18.50.589,task-selfref_run-01,59.657684208078,1674833044.9920774,179.8842469999995,word_presentation,1,dull,,
95,1,2023-01-27_10h18.50.589,task-selfref_run-01,59.657684208078,1674833045.8604288,180.75241400000004,response,1,dull,0.9175381000004563,2
95,1,2023-01-27_10h18.50.589,task-selfref_run-01,59.657684208078,1674833051.0996375,185.9914060999995,fixation,1,,,
95,1,2023-01-27_10h18.50.589,task-selfref_run-01,59.657684208078,1674833051.1751156,186.06726879999997,word_presentation,1,petty,,
95,1,2023-01-27_10h18.50.589,task-selfref_run-01,59.657684208078,1674833052.430418,187.32222150000007,response,1,petty,1.3303008000002592,2
95,1,2023-01-27_10h18.50.589,task-selfref_run-01,59.657684208078,1674833054.1556122,189.04747309999993,fixation,1,,,
95,1,2023-01-27_10h18.50.589,task-selfref_run-01,59.657684208078,1674833054.2085214,189.10064319999992,word_presentation,1,enthusiastic,,
95,1,2023-01-27_10h18.50.589,task-selfref_run-01,59.657684208078,1674833055.367802,190.26038850000032,response,1,enthusiastic,1.212388099999771,3
95,1,2023-01-27_10h18.50.589,task-selfref_run-01,59.657684208078,1674833057.5566177,192.4483970999995,fixation,1,,,
95,1,2023-01-27_10h18.50.589,task-selfref_run-01,59.657684208078,1674833057.6083288,192.50044899999966,word_presentation,1,sympathetic,,
95,1,2023-01-27_10h18.50.589,task-selfref_run-01,59.657684208078,1674833058.4675627,193.35936449999963,response,1,sympathetic,0.9104626999996981,3
95,1,2023-01-27_10h18.50.589,task-selfref_run-01,59.657684208078,1674833060.7154145,195.6072822000001,fixation,1,,,
95,1,2023-01-27_10h18.50.589,task-selfref_run-01,59.657684208078,1674833060.774401,195.6663880000001,word_presentation,1,gentle,,
95,1,2023-01-27_10h18.50.589,task-selfref_run-01,59.657684208078,1674833061.528587,196.42032840000002,response,1,gentle,0.8125478000001749,3
95,1,2023-01-27_10h18.50.589,task-selfref_run-01,59.657684208078,1674833071.2436578,206.13543699999946,fixation,1,,,
95,1,2023-01-27_10h18.50.589,task-selfref_run-01,59.657684208078,1674833073.8586893,208.7505530000003,fixation,1,,,
95,1,2023-01-27_10h18.50.589,task-selfref_run-01,59.657684208078,1674833073.9243398,208.8165396999998,word_presentation,1,awful,,
95,1,2023-01-27_10h18.50.589,task-selfref_run-01,59.657684208078,1674833074.8884158,209.78032209999992,response,1,awful,1.0292827000002944,2
95,1,2023-01-27_10h18.50.589,task-selfref_run-01,59.657684208078,1674833079.8246062,214.7164760999999,fixation,1,,,
95,1,2023-01-27_10h18.50.589,task-selfref_run-01,59.657684208078,1674833079.8758006,214.76778259999946,word_presentation,1,cheerful,,
95,1,2023-01-27_10h18.50.589,task-selfref_run-01,59.657684208078,1674833085.331486,220.22327509999968,fixation,1,,,
95,1,2023-01-27_10h18.50.589,task-selfref_run-01,59.657684208078,1674833085.3733447,220.26547989999972,word_presentation,1,sincere,,
95,1,2023-01-27_10h18.50.589,task-selfref_run-01,59.657684208078,1674833086.9457378,221.83832909999956,response,1,sincere,1.6145554000004267,3
95,1,2023-01-27_10h18.50.589,task-selfref_run-01,59.657684208078,1674833088.4276652,223.31944169999997,fixation,1,,,
95,1,2023-01-27_10h18.50.589,task-selfref_run-01,59.657684208078,1674833088.4903882,223.38221639999983,word_presentation,1,cruel,,
95,1,2023-01-27_10h18.50.589,task-selfref_run-01,59.657684208078,1674833089.5516522,224.44422449999956,response,1,cruel,1.1242349000003742,2
95,1,2023-01-27_10h18.50.589,task-selfref_run-01,59.657684208078,1674833091.7010338,226.59280669999998,fixation,1,,,
95,1,2023-01-27_10h18.50.589,task-selfref_run-01,59.657684208078,1674833091.7565045,226.6486301,word_presentation,1,good,,
95,1,2023-01-27_10h18.50.589,task-selfref_run-01,59.657684208078,1674833093.106115,227.99829,response,1,good,1.4049667999997837,3
95,1,2023-01-27_10h18.50.589,task-selfref_run-01,59.657684208078,1674833094.845711,229.73749459999954,fixation,1,,,
95,1,2023-01-27_10h18.50.589,task-selfref_run-01,59.657684208078,1674833094.9064264,229.79850510000006,word_presentation,1,prejudiced,,
95,1,2023-01-27_10h18.50.589,task-selfref_run-01,59.657684208078,1674833096.9469018,231.83929059999946,response,1,prejudiced,2.1012821000003896,2
95,1,2023-01-27_10h18.50.589,task-selfref_run-01,59.657684208078,1674833105.357415,240.2492959999995,fixation,1,,,
95,1,2023-01-27_10h18.50.589,task-selfref_run-01,59.657684208078,1674833107.9402258,242.83209839999972,fixation,1,,,
95,1,2023-01-27_10h18.50.589,task-selfref_run-01,59.657684208078,1674833107.9893816,242.88154129999975,word_presentation,1,responsible,,
95,1,2023-01-27_10h18.50.589,task-selfref_run-01,59.657684208078,1674833109.0786705,243.97115509999958,response,1,responsible,1.1385504999998375,3
95,1,2023-01-27_10h18.50.589,task-selfref_run-01,59.657684208078,1674833112.5469189,247.43878220000033,fixation,1,,,
95,1,2023-01-27_10h18.50.589,task-selfref_run-01,59.657684208078,1674833112.5891967,247.48133139999982,word_presentation,1,jolly,,
95,1,2023-01-27_10h18.50.589,task-selfref_run-01,59.657684208078,1674833114.3156273,249.20821699999988,response,1,jolly,1.7689018000000942,3
95,1,2023-01-27_10h18.50.589,task-selfref_run-01,59.657684208078,1674833117.7465053,252.63828289999992,fixation,1,,,
95,1,2023-01-27_10h18.50.589,task-selfref_run-01,59.657684208078,1674833117.8223581,252.71461829999998,word_presentation,1,elegant,,
95,1,2023-01-27_10h18.50.589,task-selfref_run-01,59.657684208078,1674833122.1061718,256.9979515,fixation,1,,,
95,1,2023-01-27_10h18.50.589,task-selfref_run-01,59.657684208078,1674833122.155661,257.0477999,word_presentation,1,flawed,,
95,1,2023-01-27_10h18.50.589,task-selfref_run-01,59.657684208078,1674833123.8910706,258.7832228000002,response,1,flawed,1.7847107000006872,2
95,1,2023-01-27_10h18.50.589,task-selfref_run-01,59.657684208078,1674833125.2926724,260.1844379999998,fixation,1,,,
95,1,2023-01-27_10h18.50.589,task-selfref_run-01,59.657684208078,1674833125.3556137,260.2477475999999,word_presentation,1,toxic,,
95,1,2023-01-27_10h18.50.589,task-selfref_run-01,59.657684208078,1674833126.331859,261.2242087999998,response,1,toxic,1.039241200000106,2
95,1,2023-01-27_10h18.50.589,task-selfref_run-01,59.657684208078,1674833128.6164448,263.50828930000034,fixation,1,,,
95,1,2023-01-27_10h18.50.589,task-selfref_run-01,59.657684208078,1674833128.671977,263.5641602999999,word_presentation,1,cowardly,,
95,1,2023-01-27_10h18.50.589,task-selfref_run-01,59.657684208078,1674833130.1862955,265.07817980000027,response,1,cowardly,1.569361600000775,2
95,1,2023-01-27_10h18.50.589,task-selfref_run-01,59.657684208078,1674833139.1406393,274.0324217000002,fixation,1,,,
95,1,2023-01-27_10h18.50.589,task-selfref_run-01,59.657684208078,1674833141.722525,276.6144085000001,fixation,1,,,
95,1,2023-01-27_10h18.50.589,task-selfref_run-01,59.657684208078,1674833141.7713385,276.6632846999996,word_presentation,1,reasonable,,
95,1,2023-01-27_10h18.50.589,task-selfref_run-01,59.657684208078,1674833142.7355988,277.6281131999999,response,1,reasonable,1.0131805000000895,3
95,1,2023-01-27_10h18.50.589,task-selfref_run-01,59.657684208078,1674833145.9791284,280.87099249999983,fixation,1,,,
95,1,2023-01-27_10h18.50.589,task-selfref_run-01,59.657684208078,1674833146.038088,280.9302044000001,word_presentation,1,dreadful,,
95,1,2023-01-27_10h18.50.589,task-selfref_run-01,59.657684208078,1674833147.7145278,282.6070730999995,response,1,dreadful,1.7355403999999908,2
95,1,2023-01-27_10h18.50.589,task-selfref_run-01,59.657684208078,1674833149.3790133,284.27079860000003,fixation,1,,,
95,1,2023-01-27_10h18.50.589,task-selfref_run-01,59.657684208078,1674833149.4376173,284.32963900000004,word_presentation,1,unkind,,
95,1,2023-01-27_10h18.50.589,task-selfref_run-01,59.657684208078,1674833150.4319787,285.32427510000025,response,1,unkind,1.0529660000001968,2
95,1,2023-01-27_10h18.50.589,task-selfref_run-01,59.657684208078,1674833153.1689901,288.0607735999997,fixation,1,,,
95,1,2023-01-27_10h18.50.589,task-selfref_run-01,59.657684208078,1674833153.2378051,288.1298707000001,word_presentation,1,skilled,,
95,1,2023-01-27_10h18.50.589,task-selfref_run-01,59.657684208078,1674833155.114246,290.0061195000003,response,1,skilled,1.9448470999996061,3
95,1,2023-01-27_10h18.50.589,task-selfref_run-01,59.657684208078,1674833157.6690412,292.56089629999997,fixation,1,,,
95,1,2023-01-27_10h18.50.589,task-selfref_run-01,59.657684208078,1674833157.7210011,292.6131086999999,word_presentation,1,rotten,,
95,1,2023-01-27_10h18.50.589,task-selfref_run-01,59.657684208078,1674833158.620249,293.5121932999996,response,1,rotten,0.9507776999998896,2
95,1,2023-01-27_10h18.50.589,task-selfref_run-01,59.657684208078,1674833161.1885452,296.08040370000026,fixation,1,,,
95,1,2023-01-27_10h18.50.589,task-selfref_run-01,59.657684208078,1674833161.25431,296.1464331000002,word_presentation,1,respectable,,
95,1,2023-01-27_10h18.50.589,task-selfref_run-01,59.657684208078,1674833162.1455302,297.0380903999999,response,1,respectable,0.9571789000001445,3
95,1,2023-01-27_10h18.50.589,task-selfref_run-01,59.657684208078,1674833171.705276,306.5971181,fixation,1,,,
95,1,2023-01-27_10h18.50.589,task-selfref_run-01,59.657684208078,1674833174.2888715,309.1806564000003,fixation,1,,,
95,1,2023-01-27_10h18.50.589,task-selfref_run-01,59.657684208078,1674833174.3541107,309.2464003,word_presentation,1,sinful,,
95,1,2023-01-27_10h18.50.589,task-selfref_run-01,59.657684208078,1674833175.4584055,310.35106359999963,response,1,sinful,1.1698688999995284,2
95,1,2023-01-27_10h18.50.589,task-selfref_run-01,59.657684208078,1674833177.4143124,312.30617759999996,fixation,1,,,
95,1,2023-01-27_10h18.50.589,task-selfref_run-01,59.657684208078,1674833177.4703,312.36244750000014,word_presentation,1,gloomy,,
95,1,2023-01-27_10h18.50.589,task-selfref_run-01,59.657684208078,1674833179.5454266,314.4380434999998,response,1,gloomy,2.1313182000003508,2
95,1,2023-01-27_10h18.50.589,task-selfref_run-01,59.657684208078,1674833181.9969068,316.88929359999975,fixation,1,,,
95,1,2023-01-27_10h18.50.589,task-selfref_run-01,59.657684208078,1674833182.0533729,316.9454185999998,word_presentation,1,mature,,
95,1,2023-01-27_10h18.50.589,task-selfref_run-01,59.657684208078,1674833182.8785782,317.77104240000017,response,1,mature,0.8812109999998938,3
95,1,2023-01-27_10h18.50.589,task-selfref_run-01,59.657684208078,1674833187.4010522,322.2928369999995,fixation,1,,,
95,1,2023-01-27_10h18.50.589,task-selfref_run-01,59.657684208078,1674833187.4698799,322.3619119,word_presentation,1,spiteful,,
95,1,2023-01-27_10h18.50.589,task-selfref_run-01,59.657684208078,1674833191.5906718,326.4825270999995,fixation,1,,,
95,1,2023-01-27_10h18.50.589,task-selfref_run-01,59.657684208078,1674833191.6368082,326.52894609999976,word_presentation,1,strong,,
95,1,2023-01-27_10h18.50.589,task-selfref_run-01,59.657684208078,1674833192.6080346,327.49986599999966,response,1,strong,1.0168377999998484,3
95,1,2023-01-27_10h18.50.589,task-selfref_run-01,59.657684208078,1674833195.0835948,329.97536770000033,fixation,1,,,
95,1,2023-01-27_10h18.50.589,task-selfref_run-01,59.657684208078,1674833195.1362212,330.0282500999997,word_presentation,1,generous,,
95,1,2023-01-27_10h18.50.589,task-selfref_run-01,59.657684208078,1674833195.9254189,330.81800950000024,response,1,generous,0.8421383000004425,3
