participant,session,date,exp_name,frame_rate,absolute_time,trigger_time,trial_type,trial_num,word,response_time,reponse_key,condition,word_valence
1094,1,2023-02-24_15h32.13.153,task-selfref_run-01,59.84118149322064,1677270740.91757,,instructions,,,,,,
1094,1,2023-02-24_15h32.13.153,task-selfref_run-01,59.84118149322064,1677270793.0549068,59.106011600000784,fixation,1,,,,,
1094,1,2023-02-24_15h32.13.153,task-selfref_run-01,59.84118149322064,1677270796.55383,62.6048314999789,fixation,1,,,,,
1094,1,2023-02-24_15h32.13.153,task-selfref_run-01,59.84118149322064,1677270804.0881946,70.13920099998359,fixation,1,,,,,
1094,1,2023-02-24_15h32.13.153,task-selfref_run-01,59.84118149322064,1677270807.586977,73.63808079995215,fixation,1,,,,,
1094,1,2023-02-24_15h32.13.153,task-selfref_run-01,59.84118149322064,1677270815.1371734,81.18827939999755,fixation,1,,,,,
1094,1,2023-02-24_15h32.13.153,task-selfref_run-01,59.84118149322064,1677270818.637143,84.68824259995017,fixation,1,,,,,
1094,1,2023-02-24_15h32.13.153,task-selfref_run-01,59.84118149322064,1677270827.4985652,0,trigger,,,,,,
1094,1,2023-02-24_15h32.13.153,task-selfref_run-01,59.84118149322064,1677270835.502939,8.003727699979208,fixation,1,,,,,
1094,1,2023-02-24_15h32.13.153,task-selfref_run-01,59.84118149322064,1677270838.102523,10.603307199897245,fixation,1,,,,,
1094,1,2023-02-24_15h32.13.153,task-selfref_run-01,59.84118149322064,1677270838.1533709,10.654549099970609,word_presentation,1,mighty,,,other,positive
1094,1,2023-02-24_15h32.13.153,task-selfref_run-01,59.84118149322064,1677270839.683768,12.184681299957447,response,1,mighty,1.5808046000311151,3,other,positive
1094,1,2023-02-24_15h32.13.153,task-selfref_run-01,59.84118149322064,1677270841.672843,14.17364729999099,fixation,1,,,,,
1094,1,2023-02-24_15h32.13.153,task-selfref_run-01,59.84118149322064,1677270841.701804,14.20294639992062,word_presentation,1,stubborn,,,other,negative
1094,1,2023-02-24_15h32.13.153,task-selfref_run-01,59.84118149322064,1677270842.6300418,15.130970599944703,response,1,stubborn,0.9567811000160873,3,other,negative
1094,1,2023-02-24_15h32.13.153,task-selfref_run-01,59.84118149322064,1677270844.6788173,17.179688899894245,fixation,1,,,,,
1094,1,2023-02-24_15h32.13.153,task-selfref_run-01,59.84118149322064,1677270844.7177858,17.218947599991225,word_presentation,1,lonely,,,other,negative
1094,1,2023-02-24_15h32.13.153,task-selfref_run-01,59.84118149322064,1677270848.8690274,21.37000299990177,fixation,1,,,,,
1094,1,2023-02-24_15h32.13.153,task-selfref_run-01,59.84118149322064,1677270848.9024577,21.40360179997515,word_presentation,1,productive,,,other,positive
1094,1,2023-02-24_15h32.13.153,task-selfref_run-01,59.84118149322064,1677270849.3375592,21.838704800000414,response,1,productive,0.468164199963212,escape,other,positive
participant,session,date,exp_name,frame_rate,absolute_time,trigger_time,trial_type,trial_num,word,response_time,reponse_key,condition,word_valence
1094,1,2023-02-27_09h41.59.554,task-selfref_run-01,59.88902565497579,1677508930.7996025,,instructions,,,,,,
1094,1,2023-02-27_09h41.59.554,task-selfref_run-01,59.88902565497579,1677508973.0530314,52.69797290000133,fixation,1,,,,,
1094,1,2023-02-27_09h41.59.554,task-selfref_run-01,59.88902565497579,1677508976.5526567,56.19757809990551,fixation,1,,,,,
1094,1,2023-02-27_09h41.59.554,task-selfref_run-01,59.88902565497579,1677508984.1029851,63.74788679997437,fixation,1,,,,,
1094,1,2023-02-27_09h41.59.554,task-selfref_run-01,59.88902565497579,1677508987.6033547,67.24819780001417,fixation,1,,,,,
1094,1,2023-02-27_09h41.59.554,task-selfref_run-01,59.88902565497579,1677508995.1520176,74.79687570000533,fixation,1,,,,,
1094,1,2023-02-27_09h41.59.554,task-selfref_run-01,59.88902565497579,1677508998.652143,78.2970071999589,fixation,1,,,,,
1094,1,2023-02-27_09h41.59.554,task-selfref_run-01,59.88902565497579,1677509201.6365726,0,trigger,,,,,,
1094,1,2023-02-27_09h41.59.554,task-selfref_run-01,59.88902565497579,1677509209.645207,8.008442199905403,fixation,1,,,,,
1094,1,2023-02-27_09h41.59.554,task-selfref_run-01,59.88902565497579,1677509212.278985,10.642209699959494,fixation,1,,,,,
1094,1,2023-02-27_09h41.59.554,task-selfref_run-01,59.88902565497579,1677509212.3276708,10.69130489998497,word_presentation,1,selfless,,,other,positive
1094,1,2023-02-27_09h41.59.554,task-selfref_run-01,59.88902565497579,1677509213.5860002,11.950038599898107,response,1,selfless,1.307248599943705,3,other,positive
1094,1,2023-02-27_09h41.59.554,task-selfref_run-01,59.88902565497579,1677509215.8489053,14.21221229992807,fixation,1,,,,,
1094,1,2023-02-27_09h41.59.554,task-selfref_run-01,59.88902565497579,1677509215.8955758,14.259255799930543,word_presentation,1,rejected,,,other,negative
1094,1,2023-02-27_09h41.59.554,task-selfref_run-01,59.88902565497579,1677509216.9368453,15.300993099925108,response,1,rejected,1.0882243000669405,2,other,negative
1094,1,2023-02-27_09h41.59.554,task-selfref_run-01,59.88902565497579,1677509218.8534942,17.217435200000182,fixation,1,,,,,
1094,1,2023-02-27_09h41.59.554,task-selfref_run-01,59.88902565497579,1677509218.8951843,17.258829799946398,word_presentation,1,controlling,,,other,negative
1094,1,2023-02-27_09h41.59.554,task-selfref_run-01,59.88902565497579,1677509219.7719076,18.135905499919318,response,1,controlling,0.9179058000445366,2,other,negative
1094,1,2023-02-27_09h41.59.554,task-selfref_run-01,59.88902565497579,1677509223.0453656,21.408606099896133,fixation,1,,,,,
1094,1,2023-02-27_09h41.59.554,task-selfref_run-01,59.88902565497579,1677509223.0938861,21.457473999937065,word_presentation,1,generous,,,other,positive
1094,1,2023-02-27_09h41.59.554,task-selfref_run-01,59.88902565497579,1677509223.7670596,22.131012999918312,response,1,generous,0.7218513999832794,3,other,positive
1094,1,2023-02-27_09h41.59.554,task-selfref_run-01,59.88902565497579,1677509227.844337,26.207658399944194,fixation,1,,,,,
1094,1,2023-02-27_09h41.59.554,task-selfref_run-01,59.88902565497579,1677509227.8922944,26.255699299974367,word_presentation,1,adventurous,,,other,positive
1094,1,2023-02-27_09h41.59.554,task-selfref_run-01,59.88902565497579,1677509228.6644897,27.02813759993296,response,1,adventurous,0.8169162999838591,3,other,positive
1094,1,2023-02-27_09h41.59.554,task-selfref_run-01,59.88902565497579,1677509231.484551,29.84777039999608,fixation,1,,,,,
1094,1,2023-02-27_09h41.59.554,task-selfref_run-01,59.88902565497579,1677509231.544564,29.908226499916054,word_presentation,1,resentful,,,other,negative
1094,1,2023-02-27_09h41.59.554,task-selfref_run-01,59.88902565497579,1677509232.2697494,30.633008899982087,response,1,resentful,0.7846755998907611,2,other,negative
1094,1,2023-02-27_09h41.59.554,task-selfref_run-01,59.88902565497579,1677509241.9761596,40.339469099999405,fixation,1,,,,,
1094,1,2023-02-27_09h41.59.554,task-selfref_run-01,59.88902565497579,1677509244.527748,42.89098839997314,fixation,1,,,,,
1094,1,2023-02-27_09h41.59.554,task-selfref_run-01,59.88902565497579,1677509244.5772324,42.94103099999484,word_presentation,1,irritable,,,self,negative
1094,1,2023-02-27_09h41.59.554,task-selfref_run-01,59.88902565497579,1677509245.5604732,43.924044999992475,response,1,irritable,1.0324355999473482,2,self,negative
1094,1,2023-02-27_09h41.59.554,task-selfref_run-01,59.88902565497579,1677509248.4385226,46.801835599937476,fixation,1,,,,,
1094,1,2023-02-27_09h41.59.554,task-selfref_run-01,59.88902565497579,1677509248.4747975,46.8381808999693,word_presentation,1,brilliant,,,self,positive
1094,1,2023-02-27_09h41.59.554,task-selfref_run-01,59.88902565497579,1677509249.649247,48.013174499967135,response,1,brilliant,1.2108025000197813,2,self,positive
1094,1,2023-02-27_09h41.59.554,task-selfref_run-01,59.88902565497579,1677509252.204358,50.56832579988986,fixation,1,,,,,
1094,1,2023-02-27_09h41.59.554,task-selfref_run-01,59.88902565497579,1677509252.2590995,50.62296719988808,word_presentation,1,considerate,,,self,positive
1094,1,2023-02-27_09h41.59.554,task-selfref_run-01,59.88902565497579,1677509253.1942918,51.558142699999735,response,1,considerate,0.9892683000070974,3,self,positive
1094,1,2023-02-27_09h41.59.554,task-selfref_run-01,59.88902565497579,1677509256.4022913,54.76553330000024,fixation,1,,,,,
1094,1,2023-02-27_09h41.59.554,task-selfref_run-01,59.88902565497579,1677509256.4417734,54.80515969998669,word_presentation,1,courageous,,,self,positive
1094,1,2023-02-27_09h41.59.554,task-selfref_run-01,59.88902565497579,1677509258.5052435,56.86921009991784,response,1,courageous,2.103132799966261,2,self,positive
1094,1,2023-02-27_09h41.59.554,task-selfref_run-01,59.88902565497579,1677509260.8635209,59.2268325999612,fixation,1,,,,,
1094,1,2023-02-27_09h41.59.554,task-selfref_run-01,59.88902565497579,1677509260.909653,59.27322029997595,word_presentation,1,demanding,,,self,negative
1094,1,2023-02-27_09h41.59.554,task-selfref_run-01,59.88902565497579,1677509262.3119903,60.676038899924606,response,1,demanding,1.4486788000212982,2,self,negative
1094,1,2023-02-27_09h41.59.554,task-selfref_run-01,59.88902565497579,1677509264.791237,63.154533599969,fixation,1,,,,,
1094,1,2023-02-27_09h41.59.554,task-selfref_run-01,59.88902565497579,1677509264.8594651,63.22287309996318,word_presentation,1,fearful,,,self,negative
1094,1,2023-02-27_09h41.59.554,task-selfref_run-01,59.88902565497579,1677509266.167806,64.53101249993779,response,1,fearful,1.375926300068386,3,self,negative
1094,1,2023-02-27_09h41.59.554,task-selfref_run-01,59.88902565497579,1677509275.293391,73.65661829989403,fixation,1,,,,,
1094,1,2023-02-27_09h41.59.554,task-selfref_run-01,59.88902565497579,1677509277.843541,76.2068425999023,fixation,1,,,,,
1094,1,2023-02-27_09h41.59.554,task-selfref_run-01,59.88902565497579,1677509277.892303,76.25589309993666,word_presentation,1,disobedient,,,semantic,negative
1094,1,2023-02-27_09h41.59.554,task-selfref_run-01,59.88902565497579,1677509279.777774,78.14187949988991,response,1,disobedient,1.934447499923408,2,semantic,negative
1094,1,2023-02-27_09h41.59.554,task-selfref_run-01,59.88902565497579,1677509281.452227,79.81554369989317,fixation,1,,,,,
1094,1,2023-02-27_09h41.59.554,task-selfref_run-01,59.88902565497579,1677509281.4922245,79.85579619999044,word_presentation,1,joyful,,,semantic,positive
1094,1,2023-02-27_09h41.59.554,task-selfref_run-01,59.88902565497579,1677509282.2044306,80.56797519989777,response,1,joyful,0.7518471999792382,3,semantic,positive
1094,1,2023-02-27_09h41.59.554,task-selfref_run-01,59.88902565497579,1677509285.8240788,84.18732389993966,fixation,1,,,,,
1094,1,2023-02-27_09h41.59.554,task-selfref_run-01,59.88902565497579,1677509285.8743367,84.23752919991966,word_presentation,1,understanding,,,semantic,positive
1094,1,2023-02-27_09h41.59.554,task-selfref_run-01,59.88902565497579,1677509286.7796087,85.14308019995224,response,1,understanding,0.9551983000710607,3,semantic,positive
1094,1,2023-02-27_09h41.59.554,task-selfref_run-01,59.88902565497579,1677509289.9958587,88.35909719998017,fixation,1,,,,,
1094,1,2023-02-27_09h41.59.554,task-selfref_run-01,59.88902565497579,1677509290.0413988,88.40481449989602,word_presentation,1,selfish,,,semantic,negative
1094,1,2023-02-27_09h41.59.554,task-selfref_run-01,59.88902565497579,1677509291.0414977,89.40502379997633,response,1,selfish,1.0453826000448316,2,semantic,negative
1094,1,2023-02-27_09h41.59.554,task-selfref_run-01,59.88902565497579,1677509293.542773,91.9060944999801,fixation,1,,,,,
1094,1,2023-02-27_09h41.59.554,task-selfref_run-01,59.88902565497579,1677509293.5923364,91.95604589988943,word_presentation,1,irrational,,,semantic,negative
1094,1,2023-02-27_09h41.59.554,task-selfref_run-01,59.88902565497579,1677509294.8576562,93.22101119998842,response,1,irrational,1.3143766999710351,2,semantic,negative
1094,1,2023-02-27_09h41.59.554,task-selfref_run-01,59.88902565497579,1677509297.0523832,95.41571659990586,fixation,1,,,,,
1094,1,2023-02-27_09h41.59.554,task-selfref_run-01,59.88902565497579,1677509297.0917351,95.45534009998664,word_presentation,1,grateful,,,semantic,positive
1094,1,2023-02-27_09h41.59.554,task-selfref_run-01,59.88902565497579,1677509297.9418037,96.3051443999866,response,1,grateful,0.8888470999663696,3,semantic,positive
1094,1,2023-02-27_09h41.59.554,task-selfref_run-01,59.88902565497579,1677509307.5599356,105.92324059992097,fixation,1,,,,,
1094,1,2023-02-27_09h41.59.554,task-selfref_run-01,59.88902565497579,1677509310.1085398,108.47184549993835,fixation,1,,,,,
1094,1,2023-02-27_09h41.59.554,task-selfref_run-01,59.88902565497579,1677509310.159074,108.52280769997742,word_presentation,1,combative,,,self,negative
1094,1,2023-02-27_09h41.59.554,task-selfref_run-01,59.88902565497579,1677509311.152409,109.51610929996241,response,1,combative,1.0437260000035167,2,self,negative
1094,1,2023-02-27_09h41.59.554,task-selfref_run-01,59.88902565497579,1677509316.7489953,115.11222729994915,fixation,1,,,,,
1094,1,2023-02-27_09h41.59.554,task-selfref_run-01,59.88902565497579,1677509316.7909613,115.15436779998709,word_presentation,1,witty,,,self,positive
1094,1,2023-02-27_09h41.59.554,task-selfref_run-01,59.88902565497579,1677509317.916217,116.28001009998843,response,1,witty,1.1672338999342173,2,self,positive
1094,1,2023-02-27_09h41.59.554,task-selfref_run-01,59.88902565497579,1677509319.840583,118.20382969989441,fixation,1,,,,,
1094,1,2023-02-27_09h41.59.554,task-selfref_run-01,59.88902565497579,1677509319.8917186,118.25537979998626,word_presentation,1,indecisive,,,self,negative
1094,1,2023-02-27_09h41.59.554,task-selfref_run-01,59.88902565497579,1677509320.8939667,119.25799569999799,response,1,indecisive,1.053560599917546,2,self,negative
1094,1,2023-02-27_09h41.59.554,task-selfref_run-01,59.88902565497579,1677509323.6725502,122.03578419995029,fixation,1,,,,,
1094,1,2023-02-27_09h41.59.554,task-selfref_run-01,59.88902565497579,1677509323.7069979,122.07050839997828,word_presentation,1,useless,,,self,negative
1094,1,2023-02-27_09h41.59.554,task-selfref_run-01,59.88902565497579,1677509324.6812458,123.04502969991881,response,1,useless,1.008674900047481,2,self,negative
1094,1,2023-02-27_09h41.59.554,task-selfref_run-01,59.88902565497579,1677509327.2460754,125.60938789998181,fixation,1,,,,,
1094,1,2023-02-27_09h41.59.554,task-selfref_run-01,59.88902565497579,1677509327.3089604,125.67252699995879,word_presentation,1,strong,,,self,positive
1094,1,2023-02-27_09h41.59.554,task-selfref_run-01,59.88902565497579,1677509328.9804478,127.34407919994555,response,1,strong,1.7341074000578374,3,self,positive
1094,1,2023-02-27_09h41.59.554,task-selfref_run-01,59.88902565497579,1677509330.8315845,129.19482019997668,fixation,1,,,,,
1094,1,2023-02-27_09h41.59.554,task-selfref_run-01,59.88902565497579,1677509330.8746674,129.2382459999062,word_presentation,1,productive,,,self,positive
1094,1,2023-02-27_09h41.59.554,task-selfref_run-01,59.88902565497579,1677509331.961934,130.32601049996447,response,1,productive,1.1306319000432268,3,self,positive
1094,1,2023-02-27_09h41.59.554,task-selfref_run-01,59.88902565497579,1677509341.3231268,139.6864347999217,fixation,1,,,,,
1094,1,2023-02-27_09h41.59.554,task-selfref_run-01,59.88902565497579,1677509343.8740494,142.23736499994993,fixation,1,,,,,
1094,1,2023-02-27_09h41.59.554,task-selfref_run-01,59.88902565497579,1677509343.9244556,142.28773139999248,word_presentation,1,weak,,,other,negative
1094,1,2023-02-27_09h41.59.554,task-selfref_run-01,59.88902565497579,1677509344.680155,143.0438993999269,response,1,weak,0.8059987999731675,2,other,negative
1094,1,2023-02-27_09h41.59.554,task-selfref_run-01,59.88902565497579,1677509347.0344782,145.39808209997136,fixation,1,,,,,
1094,1,2023-02-27_09h41.59.554,task-selfref_run-01,59.88902565497579,1677509347.0722282,145.43582019989844,word_presentation,1,energetic,,,other,positive
1094,1,2023-02-27_09h41.59.554,task-selfref_run-01,59.88902565497579,1677509347.7284043,146.0920035999734,response,1,energetic,0.6933702999958768,3,other,positive
1094,1,2023-02-27_09h41.59.554,task-selfref_run-01,59.88902565497579,1677509350.9111772,149.2744133999804,fixation,1,,,,,
1094,1,2023-02-27_09h41.59.554,task-selfref_run-01,59.88902565497579,1677509350.9563253,149.31995429995004,word_presentation,1,mature,,,other,positive
1094,1,2023-02-27_09h41.59.554,task-selfref_run-01,59.88902565497579,1677509351.7595088,150.12288889999036,response,1,mature,0.8479283999186009,3,other,positive
1094,1,2023-02-27_09h41.59.554,task-selfref_run-01,59.88902565497579,1677509354.1264443,152.49053259997163,fixation,1,,,,,
1094,1,2023-02-27_09h41.59.554,task-selfref_run-01,59.88902565497579,1677509354.173394,152.53687119996175,word_presentation,1,cooperative,,,other,positive
1094,1,2023-02-27_09h41.59.554,task-selfref_run-01,59.88902565497579,1677509355.0065877,153.37002689996734,response,1,cooperative,0.8789441999979317,3,other,positive
1094,1,2023-02-27_09h41.59.554,task-selfref_run-01,59.88902565497579,1677509358.794347,157.1575735999504,fixation,1,,,,,
1094,1,2023-02-27_09h41.59.554,task-selfref_run-01,59.88902565497579,1677509358.8372636,157.20066819991916,word_presentation,1,boastful,,,other,negative
1094,1,2023-02-27_09h41.59.554,task-selfref_run-01,59.88902565497579,1677509359.6985087,158.06200749997515,response,1,boastful,0.9038926000939682,2,other,negative
1094,1,2023-02-27_09h41.59.554,task-selfref_run-01,59.88902565497579,1677509362.4805136,160.84379329998046,fixation,1,,,,,
1094,1,2023-02-27_09h41.59.554,task-selfref_run-01,59.88902565497579,1677509362.52305,160.8866457999684,word_presentation,1,dreadful,,,other,negative
1094,1,2023-02-27_09h41.59.554,task-selfref_run-01,59.88902565497579,1677509363.2212098,161.5850093999179,response,1,dreadful,0.7406613000202924,2,other,negative
1094,1,2023-02-27_09h41.59.554,task-selfref_run-01,59.88902565497579,1677509372.9728656,171.33608359994832,fixation,1,,,,,
1094,1,2023-02-27_09h41.59.554,task-selfref_run-01,59.88902565497579,1677509375.5235023,173.88673859997652,fixation,1,,,,,
1094,1,2023-02-27_09h41.59.554,task-selfref_run-01,59.88902565497579,1677509375.5735564,173.9371653998969,word_presentation,1,mean,,,self,negative
1094,1,2023-02-27_09h41.59.554,task-selfref_run-01,59.88902565497579,1677509376.4887846,174.85197629989125,response,1,mean,0.9646773999556899,2,self,negative
1094,1,2023-02-27_09h41.59.554,task-selfref_run-01,59.88902565497579,1677509380.6743855,179.03762869990896,fixation,1,,,,,
1094,1,2023-02-27_09h41.59.554,task-selfref_run-01,59.88902565497579,1677509380.7035732,179.06690689991228,word_presentation,1,nasty,,,self,negative
1094,1,2023-02-27_09h41.59.554,task-selfref_run-01,59.88902565497579,1677509381.4619122,179.82602209993638,response,1,nasty,0.7878124000271782,2,self,negative
1094,1,2023-02-27_09h41.59.554,task-selfref_run-01,59.88902565497579,1677509386.8132257,185.17645719996653,fixation,1,,,,,
1094,1,2023-02-27_09h41.59.554,task-selfref_run-01,59.88902565497579,1677509386.8541937,185.21781139995437,word_presentation,1,grumpy,,,self,negative
1094,1,2023-02-27_09h41.59.554,task-selfref_run-01,59.88902565497579,1677509387.5983825,185.961930999998,response,1,grumpy,0.7849488999927416,2,self,negative
1094,1,2023-02-27_09h41.59.554,task-selfref_run-01,59.88902565497579,1677509389.834878,188.19820179999806,fixation,1,,,,,
1094,1,2023-02-27_09h41.59.554,task-selfref_run-01,59.88902565497579,1677509389.872119,188.2357531999005,word_presentation,1,mighty,,,self,positive
1094,1,2023-02-27_09h41.59.554,task-selfref_run-01,59.88902565497579,1677509391.048613,189.4120034999214,response,1,mighty,1.2132645000237972,2,self,positive
1094,1,2023-02-27_09h41.59.554,task-selfref_run-01,59.88902565497579,1677509393.2203178,191.5835281999316,fixation,1,,,,,
1094,1,2023-02-27_09h41.59.554,task-selfref_run-01,59.88902565497579,1677509393.2551599,191.6185366999125,word_presentation,1,smart,,,self,positive
1094,1,2023-02-27_09h41.59.554,task-selfref_run-01,59.88902565497579,1677509394.2013748,192.5649492999073,response,1,smart,0.9808958999346942,3,self,positive
1094,1,2023-02-27_09h41.59.554,task-selfref_run-01,59.88902565497579,1677509396.3624792,194.7257200999884,fixation,1,,,,,
1094,1,2023-02-27_09h41.59.554,task-selfref_run-01,59.88902565497579,1677509396.4028513,194.76638629997615,word_presentation,1,loyal,,,self,positive
1094,1,2023-02-27_09h41.59.554,task-selfref_run-01,59.88902565497579,1677509397.4344795,195.79803619999439,response,1,loyal,1.0717006999766454,3,self,positive
1094,1,2023-02-27_09h41.59.554,task-selfref_run-01,59.88902565497579,1677509406.853535,205.2172930999659,fixation,1,,,,,
1094,1,2023-02-27_09h41.59.554,task-selfref_run-01,59.88902565497579,1677509409.40443,207.7676714999834,fixation,1,,,,,
1094,1,2023-02-27_09h41.59.554,task-selfref_run-01,59.88902565497579,1677509409.4559135,207.8199419999728,word_presentation,1,incompetent,,,other,negative
1094,1,2023-02-27_09h41.59.554,task-selfref_run-01,59.88902565497579,1677509410.443433,208.80732189991977,response,1,incompetent,1.0391256000148132,2,other,negative
1094,1,2023-02-27_09h41.59.554,task-selfref_run-01,59.88902565497579,1677509415.3544998,213.71863359992858,fixation,1,,,,,
1094,1,2023-02-27_09h41.59.554,task-selfref_run-01,59.88902565497579,1677509415.3877778,213.75108799990267,word_presentation,1,daring,,,other,positive
1094,1,2023-02-27_09h41.59.554,task-selfref_run-01,59.88902565497579,1677509416.2869995,214.65099679993,response,1,daring,0.9317911999532953,3,other,positive
1094,1,2023-02-27_09h41.59.554,task-selfref_run-01,59.88902565497579,1677509420.8455698,219.20880899997428,fixation,1,,,,,
1094,1,2023-02-27_09h41.59.554,task-selfref_run-01,59.88902565497579,1677509420.9047844,219.26839989994187,word_presentation,1,expressive,,,other,positive
1094,1,2023-02-27_09h41.59.554,task-selfref_run-01,59.88902565497579,1677509421.900011,220.26412249996793,response,1,expressive,1.054757000063546,3,other,positive
1094,1,2023-02-27_09h41.59.554,task-selfref_run-01,59.88902565497579,1677509423.9072638,222.2704905999126,fixation,1,,,,,
1094,1,2023-02-27_09h41.59.554,task-selfref_run-01,59.88902565497579,1677509423.9544475,222.31804389995523,word_presentation,1,unreasonable,,,other,negative
1094,1,2023-02-27_09h41.59.554,task-selfref_run-01,59.88902565497579,1677509424.7641733,223.12799789989367,response,1,unreasonable,0.8569631000282243,2,other,negative
1094,1,2023-02-27_09h41.59.554,task-selfref_run-01,59.88902565497579,1677509427.1649477,225.52825789991766,fixation,1,,,,,
1094,1,2023-02-27_09h41.59.554,task-selfref_run-01,59.88902565497579,1677509427.2026002,225.56600089999847,word_presentation,1,dependable,,,other,positive
1094,1,2023-02-27_09h41.59.554,task-selfref_run-01,59.88902565497579,1677509428.0678003,226.43193209997844,response,1,dependable,0.9031114000827074,3,other,positive
1094,1,2023-02-27_09h41.59.554,task-selfref_run-01,59.88902565497579,1677509430.293371,228.65661339997314,fixation,1,,,,,
1094,1,2023-02-27_09h41.59.554,task-selfref_run-01,59.88902565497579,1677509430.3547122,228.71832039998844,word_presentation,1,lazy,,,other,negative
1094,1,2023-02-27_09h41.59.554,task-selfref_run-01,59.88902565497579,1677509431.015551,229.37892319995444,response,1,lazy,0.7217361000366509,2,other,negative
1094,1,2023-02-27_09h41.59.554,task-selfref_run-01,59.88902565497579,1677509440.7870271,239.15026219992433,fixation,1,,,,,
1094,1,2023-02-27_09h41.59.554,task-selfref_run-01,59.88902565497579,1677509443.3202488,241.68349419999868,fixation,1,,,,,
1094,1,2023-02-27_09h41.59.554,task-selfref_run-01,59.88902565497579,1677509443.3712645,241.73488939995877,word_presentation,1,adaptable,,,semantic,positive
1094,1,2023-02-27_09h41.59.554,task-selfref_run-01,59.88902565497579,1677509444.1744597,242.53792739997152,response,1,adaptable,0.8538955000694841,3,semantic,positive
1094,1,2023-02-27_09h41.59.554,task-selfref_run-01,59.88902565497579,1677509447.9118183,246.2750627999194,fixation,1,,,,,
1094,1,2023-02-27_09h41.59.554,task-selfref_run-01,59.88902565497579,1677509447.9539368,246.31759909994435,word_presentation,1,calm,,,semantic,positive
1094,1,2023-02-27_09h41.59.554,task-selfref_run-01,59.88902565497579,1677509448.9091556,247.27286249992903,response,1,calm,0.9972579999594018,3,semantic,positive
1094,1,2023-02-27_09h41.59.554,task-selfref_run-01,59.88902565497579,1677509453.0930035,251.45631309994496,fixation,1,,,,,
1094,1,2023-02-27_09h41.59.554,task-selfref_run-01,59.88902565497579,1677509453.1378245,251.50148879992776,word_presentation,1,clever,,,semantic,positive
1094,1,2023-02-27_09h41.59.554,task-selfref_run-01,59.88902565497579,1677509453.9800363,252.34396339999512,response,1,clever,0.8870868999511003,3,semantic,positive
1094,1,2023-02-27_09h41.59.554,task-selfref_run-01,59.88902565497579,1677509457.434435,255.7981315999059,fixation,1,,,,,
1094,1,2023-02-27_09h41.59.554,task-selfref_run-01,59.88902565497579,1677509457.4874496,255.85073159995954,word_presentation,1,troublesome,,,semantic,negative
1094,1,2023-02-27_09h41.59.554,task-selfref_run-01,59.88902565497579,1677509458.3006558,256.6640404999489,response,1,troublesome,0.865351999993436,2,semantic,negative
1094,1,2023-02-27_09h41.59.554,task-selfref_run-01,59.88902565497579,1677509460.607181,258.9704805999063,fixation,1,,,,,
1094,1,2023-02-27_09h41.59.554,task-selfref_run-01,59.88902565497579,1677509460.635521,258.9989140999969,word_presentation,1,mediocre,,,semantic,negative
1094,1,2023-02-27_09h41.59.554,task-selfref_run-01,59.88902565497579,1677509461.4327228,259.79682389996015,response,1,mediocre,0.8257905000355095,2,semantic,negative
1094,1,2023-02-27_09h41.59.554,task-selfref_run-01,59.88902565497579,1677509463.9143155,262.2776130998973,fixation,1,,,,,
1094,1,2023-02-27_09h41.59.554,task-selfref_run-01,59.88902565497579,1677509463.9700432,262.3336715999758,word_presentation,1,lonely,,,semantic,negative
1094,1,2023-02-27_09h41.59.554,task-selfref_run-01,59.88902565497579,1677509464.7945135,263.1580395998899,response,1,lonely,0.8798689999384806,2,semantic,negative
1094,1,2023-02-27_09h41.59.554,task-selfref_run-01,59.88902565497579,1677509474.420966,272.7841864998918,fixation,1,,,,,
1094,1,2023-02-27_09h41.59.554,task-selfref_run-01,59.88902565497579,1677509476.9699085,275.3331323999446,fixation,1,,,,,
1094,1,2023-02-27_09h41.59.554,task-selfref_run-01,59.88902565497579,1677509477.020729,275.3842740999535,word_presentation,1,polite,,,other,positive
1094,1,2023-02-27_09h41.59.554,task-selfref_run-01,59.88902565497579,1677509478.3640702,276.72797729994636,response,1,polite,1.3942986000329256,3,other,positive
1094,1,2023-02-27_09h41.59.554,task-selfref_run-01,59.88902565497579,1677509481.2094185,279.5727229999611,fixation,1,,,,,
1094,1,2023-02-27_09h41.59.554,task-selfref_run-01,59.88902565497579,1677509481.2697544,279.6334123999113,word_presentation,1,thoughtless,,,other,negative
1094,1,2023-02-27_09h41.59.554,task-selfref_run-01,59.88902565497579,1677509481.9979608,280.3620012999745,response,1,thoughtless,0.7887294000247493,2,other,negative
1094,1,2023-02-27_09h41.59.554,task-selfref_run-01,59.88902565497579,1677509484.5913236,282.9551478999201,fixation,1,,,,,
1094,1,2023-02-27_09h41.59.554,task-selfref_run-01,59.88902565497579,1677509484.6349607,282.99838409991935,word_presentation,1,depressed,,,other,negative
1094,1,2023-02-27_09h41.59.554,task-selfref_run-01,59.88902565497579,1677509485.3071408,283.671093699988,response,1,depressed,0.7154536999296397,2,other,negative
1094,1,2023-02-27_09h41.59.554,task-selfref_run-01,59.88902565497579,1677509488.3656344,286.72887409990653,fixation,1,,,,,
1094,1,2023-02-27_09h41.59.554,task-selfref_run-01,59.88902565497579,1677509488.4188373,286.7824428998865,word_presentation,1,compassionate,,,other,positive
1094,1,2023-02-27_09h41.59.554,task-selfref_run-01,59.88902565497579,1677509489.027976,287.39195549988654,response,1,compassionate,0.662542299949564,3,other,positive
1094,1,2023-02-27_09h41.59.554,task-selfref_run-01,59.88902565497579,1677509492.850247,291.21352489991114,fixation,1,,,,,
1094,1,2023-02-27_09h41.59.554,task-selfref_run-01,59.88902565497579,1677509492.9197452,291.28331649990287,word_presentation,1,self-conscious,,,other,negative
1094,1,2023-02-27_09h41.59.554,task-selfref_run-01,59.88902565497579,1677509494.0855653,292.44897819997277,response,1,self-conscious,1.234892100095749,2,other,negative
1094,1,2023-02-27_09h41.59.554,task-selfref_run-01,59.88902565497579,1677509496.3539438,294.7172769999597,fixation,1,,,,,
1094,1,2023-02-27_09h41.59.554,task-selfref_run-01,59.88902565497579,1677509496.384458,294.7480374999577,word_presentation,1,charitable,,,other,positive
1094,1,2023-02-27_09h41.59.554,task-selfref_run-01,59.88902565497579,1677509497.3927069,295.7559847999364,response,1,charitable,1.0380944999633357,3,other,positive
1094,1,2023-02-27_09h41.59.554,task-selfref_run-01,59.88902565497579,1677509506.8527608,305.216071599978,fixation,1,,,,,
1094,1,2023-02-27_09h41.59.554,task-selfref_run-01,59.88902565497579,1677509509.4018853,307.76518549991306,fixation,1,,,,,
1094,1,2023-02-27_09h41.59.554,task-selfref_run-01,59.88902565497579,1677509509.4517224,307.81519649992697,word_presentation,1,aggressive,,,self,negative
1094,1,2023-02-27_09h41.59.554,task-selfref_run-01,59.88902565497579,1677509510.450992,308.8149896999821,response,1,aggressive,1.0492651999229565,2,self,negative
1094,1,2023-02-27_09h41.59.554,task-selfref_run-01,59.88902565497579,1677509512.5118835,310.8751080998918,fixation,1,,,,,
1094,1,2023-02-27_09h41.59.554,task-selfref_run-01,59.88902565497579,1677509512.5516968,310.9152831999818,word_presentation,1,stubborn,,,self,negative
1094,1,2023-02-27_09h41.59.554,task-selfref_run-01,59.88902565497579,1677509514.180065,312.5439908999251,response,1,stubborn,1.6683348000515252,2,self,negative
1094,1,2023-02-27_09h41.59.554,task-selfref_run-01,59.88902565497579,1677509517.0791004,315.44241199991666,fixation,1,,,,,
1094,1,2023-02-27_09h41.59.554,task-selfref_run-01,59.88902565497579,1677509517.135863,315.49961359996814,word_presentation,1,sweet,,,self,positive
1094,1,2023-02-27_09h41.59.554,task-selfref_run-01,59.88902565497579,1677509518.1541057,316.51797459996305,response,1,sweet,1.0749646000331268,3,self,positive
1094,1,2023-02-27_09h41.59.554,task-selfref_run-01,59.88902565497579,1677509522.4660795,320.829309899942,fixation,1,,,,,
1094,1,2023-02-27_09h41.59.554,task-selfref_run-01,59.88902565497579,1677509522.5002468,320.8638410998974,word_presentation,1,abusive,,,self,negative
1094,1,2023-02-27_09h41.59.554,task-selfref_run-01,59.88902565497579,1677509523.4294777,321.79298359993845,response,1,abusive,0.9631249000085518,2,self,negative
1094,1,2023-02-27_09h41.59.554,task-selfref_run-01,59.88902565497579,1677509526.6388302,325.0020541999256,fixation,1,,,,,
1094,1,2023-02-27_09h41.59.554,task-selfref_run-01,59.88902565497579,1677509526.685746,325.04933479998726,word_presentation,1,devoted,,,self,positive
1094,1,2023-02-27_09h41.59.554,task-selfref_run-01,59.88902565497579,1677509527.8940647,326.25796699989587,response,1,devoted,1.2553333999821916,3,self,positive
1094,1,2023-02-27_09h41.59.554,task-selfref_run-01,59.88902565497579,1677509530.1136537,328.4770069998922,fixation,1,,,,,
1094,1,2023-02-27_09h41.59.554,task-selfref_run-01,59.88902565497579,1677509530.1683297,328.53197399992496,word_presentation,1,friendly,,,self,positive
1094,1,2023-02-27_09h41.59.554,task-selfref_run-01,59.88902565497579,1677509531.1645765,329.52792369993404,response,1,friendly,1.050374999991618,3,self,positive
