participant,session,date,exp_name,frame_rate,absolute_time,trigger_time,trial_type,trial_num,word,response_time,reponse_key,condition,word_valence
REMIND-1097,1,2022-12-14_16h35.34.633,task-selfref_run-01,59.68552885346407,1671053764.1321301,,instructions,,,,,,
REMIND-1097,1,2022-12-14_16h35.34.633,task-selfref_run-01,59.68552885346407,1671053855.6786938,120.14981599990278,fixation,1,,,,,
REMIND-1097,1,2022-12-14_16h35.34.633,task-selfref_run-01,59.68552885346407,1671053859.1792145,123.65032129990868,fixation,1,,,,,
REMIND-1097,1,2022-12-14_16h35.34.633,task-selfref_run-01,59.68552885346407,1671053866.72933,131.20049959991593,fixation,1,,,,,
REMIND-1097,1,2022-12-14_16h35.34.633,task-selfref_run-01,59.68552885346407,1671053870.228747,134.6998577999184,fixation,1,,,,,
REMIND-1097,1,2022-12-14_16h35.34.633,task-selfref_run-01,59.68552885346407,1671053877.7765667,142.24770179996267,fixation,1,,,,,
REMIND-1097,1,2022-12-14_16h35.34.633,task-selfref_run-01,59.68552885346407,1671053881.278171,145.74936309992336,fixation,1,,,,,
REMIND-1097,1,2022-12-14_16h35.34.633,task-selfref_run-01,59.68552885346407,1671053937.5037248,0,trigger,,,,,,
REMIND-1097,1,2022-12-14_16h35.34.633,task-selfref_run-01,59.68552885346407,1671053945.5092244,8.005146600073203,fixation,1,,,,,
REMIND-1097,1,2022-12-14_16h35.34.633,task-selfref_run-01,59.68552885346407,1671053948.2261686,10.722036999999546,fixation,1,,,,,
REMIND-1097,1,2022-12-14_16h35.34.633,task-selfref_run-01,59.68552885346407,1671053948.292618,10.788914000033401,word_presentation,1,gentle,,,semantic,positive
REMIND-1097,1,2022-12-14_16h35.34.633,task-selfref_run-01,59.68552885346407,1671053948.9097595,11.406308600096963,response,1,gentle,0.6831669999519363,3,semantic,positive
REMIND-1097,1,2022-12-14_16h35.34.633,task-selfref_run-01,59.68552885346407,1671053951.7953517,14.291215700097382,fixation,1,,,,,
REMIND-1097,1,2022-12-14_16h35.34.633,task-selfref_run-01,59.68552885346407,1671053951.8592694,14.355611100094393,word_presentation,1,childish,,,semantic,negative
REMIND-1097,1,2022-12-14_16h35.34.633,task-selfref_run-01,59.68552885346407,1671053952.7735243,15.269337700097822,response,1,childish,0.9771253999788314,2,semantic,negative
REMIND-1097,1,2022-12-14_16h35.34.633,task-selfref_run-01,59.68552885346407,1671053954.802439,17.298382500070147,fixation,1,,,,,
REMIND-1097,1,2022-12-14_16h35.34.633,task-selfref_run-01,59.68552885346407,1671053954.858673,17.354921900085174,word_presentation,1,irritating,,,semantic,negative
REMIND-1097,1,2022-12-14_16h35.34.633,task-selfref_run-01,59.68552885346407,1671053955.9289365,18.425439700018615,response,1,irritating,1.1261022000107914,2,semantic,negative
REMIND-1097,1,2022-12-14_16h35.34.633,task-selfref_run-01,59.68552885346407,1671053959.0097094,21.50567600002978,fixation,1,,,,,
REMIND-1097,1,2022-12-14_16h35.34.633,task-selfref_run-01,59.68552885346407,1671053959.0771174,21.573573300032876,word_presentation,1,admired,,,semantic,positive
REMIND-1097,1,2022-12-14_16h35.34.633,task-selfref_run-01,59.68552885346407,1671053959.7082708,22.20412440004293,response,1,admired,0.6972187999635935,3,semantic,positive
REMIND-1097,1,2022-12-14_16h35.34.633,task-selfref_run-01,59.68552885346407,1671053963.8092573,26.305208900012076,fixation,1,,,,,
REMIND-1097,1,2022-12-14_16h35.34.633,task-selfref_run-01,59.68552885346407,1671053963.8590016,26.35526750003919,word_presentation,1,sympathetic,,,semantic,positive
REMIND-1097,1,2022-12-14_16h35.34.633,task-selfref_run-01,59.68552885346407,1671053964.6922119,27.188251300016418,response,1,sympathetic,0.8822394999442622,3,semantic,positive
REMIND-1097,1,2022-12-14_16h35.34.633,task-selfref_run-01,59.68552885346407,1671053967.4490316,29.94489800010342,fixation,1,,,,,
REMIND-1097,1,2022-12-14_16h35.34.633,task-selfref_run-01,59.68552885346407,1671053967.5080616,30.004390400019474,word_presentation,1,terrible,,,semantic,negative
REMIND-1097,1,2022-12-14_16h35.34.633,task-selfref_run-01,59.68552885346407,1671053968.1572566,30.653222499997355,response,1,terrible,0.7075340999290347,2,semantic,negative
REMIND-1097,1,2022-12-14_16h35.34.633,task-selfref_run-01,59.68552885346407,1671053977.941452,40.43733109999448,fixation,1,,,,,
REMIND-1097,1,2022-12-14_16h35.34.633,task-selfref_run-01,59.68552885346407,1671053980.542683,43.03860349999741,fixation,1,,,,,
REMIND-1097,1,2022-12-14_16h35.34.633,task-selfref_run-01,59.68552885346407,1671053980.6074626,43.10381140001118,word_presentation,1,ignorant,,,self,negative
REMIND-1097,1,2022-12-14_16h35.34.633,task-selfref_run-01,59.68552885346407,1671053981.4796815,43.97632430004887,response,1,ignorant,0.9367443000664935,2,self,negative
REMIND-1097,1,2022-12-14_16h35.34.633,task-selfref_run-01,59.68552885346407,1671053984.451732,46.94759390002582,fixation,1,,,,,
REMIND-1097,1,2022-12-14_16h35.34.633,task-selfref_run-01,59.68552885346407,1671053984.5080643,47.00426570000127,word_presentation,1,organized,,,self,positive
REMIND-1097,1,2022-12-14_16h35.34.633,task-selfref_run-01,59.68552885346407,1671053985.5233157,48.019186999998055,response,1,organized,1.0705867999931797,3,self,positive
REMIND-1097,1,2022-12-14_16h35.34.633,task-selfref_run-01,59.68552885346407,1671053988.2186668,50.71453019999899,fixation,1,,,,,
REMIND-1097,1,2022-12-14_16h35.34.633,task-selfref_run-01,59.68552885346407,1671053988.2713335,50.76746000000276,word_presentation,1,lucky,,,self,positive
REMIND-1097,1,2022-12-14_16h35.34.633,task-selfref_run-01,59.68552885346407,1671053989.365582,51.86232670000754,response,1,lucky,1.1467571000102907,3,self,positive
REMIND-1097,1,2022-12-14_16h35.34.633,task-selfref_run-01,59.68552885346407,1671053992.415506,54.91137660003733,fixation,1,,,,,
REMIND-1097,1,2022-12-14_16h35.34.633,task-selfref_run-01,59.68552885346407,1671053992.49119,54.9874914000975,word_presentation,1,gracious,,,self,positive
REMIND-1097,1,2022-12-14_16h35.34.633,task-selfref_run-01,59.68552885346407,1671053993.8535135,56.35022660007235,response,1,gracious,1.4378399000270292,3,self,positive
REMIND-1097,1,2022-12-14_16h35.34.633,task-selfref_run-01,59.68552885346407,1671053996.894737,59.390597000019625,fixation,1,,,,,
REMIND-1097,1,2022-12-14_16h35.34.633,task-selfref_run-01,59.68552885346407,1671053996.939897,59.43617730005644,word_presentation,1,evil,,,self,negative
REMIND-1097,1,2022-12-14_16h35.34.633,task-selfref_run-01,59.68552885346407,1671053997.8310995,60.32718890008982,response,1,evil,0.9356619999743998,2,self,negative
REMIND-1097,1,2022-12-14_16h35.34.633,task-selfref_run-01,59.68552885346407,1671054000.8189182,63.31494270008989,fixation,1,,,,,
REMIND-1097,1,2022-12-14_16h35.34.633,task-selfref_run-01,59.68552885346407,1671054000.8733628,63.36962470004801,word_presentation,1,unpleasant,,,self,negative
REMIND-1097,1,2022-12-14_16h35.34.633,task-selfref_run-01,59.68552885346407,1671054002.0169425,64.51322270010132,response,1,unpleasant,1.1974390000104904,2,self,negative
REMIND-1097,1,2022-12-14_16h35.34.633,task-selfref_run-01,59.68552885346407,1671054011.3246884,73.82059930008836,fixation,1,,,,,
REMIND-1097,1,2022-12-14_16h35.34.633,task-selfref_run-01,59.68552885346407,1671054013.9082537,76.40411740005948,fixation,1,,,,,
REMIND-1097,1,2022-12-14_16h35.34.633,task-selfref_run-01,59.68552885346407,1671054013.9729571,76.46930360002443,word_presentation,1,awkward,,,other,negative
REMIND-1097,1,2022-12-14_16h35.34.633,task-selfref_run-01,59.68552885346407,1671054014.7961493,77.29215700004715,response,1,awkward,0.887078300002031,2,other,negative
REMIND-1097,1,2022-12-14_16h35.34.633,task-selfref_run-01,59.68552885346407,1671054017.517704,80.01365330000408,fixation,1,,,,,
REMIND-1097,1,2022-12-14_16h35.34.633,task-selfref_run-01,59.68552885346407,1671054017.5898924,80.08591850008816,word_presentation,1,courteous,,,other,positive
REMIND-1097,1,2022-12-14_16h35.34.633,task-selfref_run-01,59.68552885346407,1671054018.2640693,80.76019560010172,response,1,courteous,0.7455287999473512,3,other,positive
REMIND-1097,1,2022-12-14_16h35.34.633,task-selfref_run-01,59.68552885346407,1671054021.9043858,84.40026810008567,fixation,1,,,,,
REMIND-1097,1,2022-12-14_16h35.34.633,task-selfref_run-01,59.68552885346407,1671054021.9733126,84.46964640007354,word_presentation,1,proficient,,,other,positive
REMIND-1097,1,2022-12-14_16h35.34.633,task-selfref_run-01,59.68552885346407,1671054022.831537,85.32818920002319,response,1,proficient,0.9268260999815539,3,other,positive
REMIND-1097,1,2022-12-14_16h35.34.633,task-selfref_run-01,59.68552885346407,1671054026.07701,88.57294740004,fixation,1,,,,,
REMIND-1097,1,2022-12-14_16h35.34.633,task-selfref_run-01,59.68552885346407,1671054026.1559908,88.65232860005926,word_presentation,1,helpless,,,other,negative
REMIND-1097,1,2022-12-14_16h35.34.633,task-selfref_run-01,59.68552885346407,1671054026.975186,89.47118210000917,response,1,helpless,0.8972967000445351,2,other,negative
REMIND-1097,1,2022-12-14_16h35.34.633,task-selfref_run-01,59.68552885346407,1671054029.621878,92.11774180002976,fixation,1,,,,,
REMIND-1097,1,2022-12-14_16h35.34.633,task-selfref_run-01,59.68552885346407,1671054029.6704416,92.16660610004328,word_presentation,1,intolerant,,,other,negative
REMIND-1097,1,2022-12-14_16h35.34.633,task-selfref_run-01,59.68552885346407,1671054030.7466884,93.24332160002086,response,1,intolerant,1.124615399981849,2,other,negative
REMIND-1097,1,2022-12-14_16h35.34.633,task-selfref_run-01,59.68552885346407,1671054033.1324797,95.62835710006766,fixation,1,,,,,
REMIND-1097,1,2022-12-14_16h35.34.633,task-selfref_run-01,59.68552885346407,1671054033.1894534,95.68543220008723,word_presentation,1,agreeable,,,other,positive
REMIND-1097,1,2022-12-14_16h35.34.633,task-selfref_run-01,59.68552885346407,1671054034.033668,96.53023740008939,response,1,agreeable,0.900979399913922,3,other,positive
REMIND-1097,1,2022-12-14_16h35.34.633,task-selfref_run-01,59.68552885346407,1671054043.6397214,106.13557820010465,fixation,1,,,,,
REMIND-1097,1,2022-12-14_16h35.34.633,task-selfref_run-01,59.68552885346407,1671054046.239789,108.73564240010455,fixation,1,,,,,
REMIND-1097,1,2022-12-14_16h35.34.633,task-selfref_run-01,59.68552885346407,1671054046.3063664,108.80233920004684,word_presentation,1,ruthless,,,other,negative
REMIND-1097,1,2022-12-14_16h35.34.633,task-selfref_run-01,59.68552885346407,1671054047.093524,109.5902456000913,response,1,ruthless,0.8536135999020189,2,other,negative
REMIND-1097,1,2022-12-14_16h35.34.633,task-selfref_run-01,59.68552885346407,1671054052.87839,115.37515640002675,fixation,1,,,,,
REMIND-1097,1,2022-12-14_16h35.34.633,task-selfref_run-01,59.68552885346407,1671054052.938334,115.43466320005246,word_presentation,1,glorious,,,other,positive
REMIND-1097,1,2022-12-14_16h35.34.633,task-selfref_run-01,59.68552885346407,1671054054.2626543,116.75916320004035,response,1,glorious,1.3829993000254035,3,other,positive
REMIND-1097,1,2022-12-14_16h35.34.633,task-selfref_run-01,59.68552885346407,1671054055.974093,118.46998330007773,fixation,1,,,,,
REMIND-1097,1,2022-12-14_16h35.34.633,task-selfref_run-01,59.68552885346407,1671054056.037885,118.5341819000896,word_presentation,1,angry,,,other,negative
REMIND-1097,1,2022-12-14_16h35.34.633,task-selfref_run-01,59.68552885346407,1671054056.8020618,119.29815010004677,response,1,angry,0.8271632000105456,2,other,negative
REMIND-1097,1,2022-12-14_16h35.34.633,task-selfref_run-01,59.68552885346407,1671054059.8007154,122.29656930000056,fixation,1,,,,,
REMIND-1097,1,2022-12-14_16h35.34.633,task-selfref_run-01,59.68552885346407,1671054059.8548179,122.35112030000892,word_presentation,1,wicked,,,other,negative
REMIND-1097,1,2022-12-14_16h35.34.633,task-selfref_run-01,59.68552885346407,1671054060.640069,123.13621070003137,response,1,wicked,0.8385586000513285,2,other,negative
REMIND-1097,1,2022-12-14_16h35.34.633,task-selfref_run-01,59.68552885346407,1671054063.3752143,125.87108620000072,fixation,1,,,,,
REMIND-1097,1,2022-12-14_16h35.34.633,task-selfref_run-01,59.68552885346407,1671054063.4379308,125.93425590009429,word_presentation,1,skilled,,,other,positive
REMIND-1097,1,2022-12-14_16h35.34.633,task-selfref_run-01,59.68552885346407,1671054064.2893493,126.78529430006165,response,1,skilled,0.9133088999660686,3,other,positive
REMIND-1097,1,2022-12-14_16h35.34.633,task-selfref_run-01,59.68552885346407,1671054066.9615653,129.45747540006414,fixation,1,,,,,
REMIND-1097,1,2022-12-14_16h35.34.633,task-selfref_run-01,59.68552885346407,1671054067.0221894,129.5184886000352,word_presentation,1,reliable,,,other,positive
REMIND-1097,1,2022-12-14_16h35.34.633,task-selfref_run-01,59.68552885346407,1671054067.746355,130.24303930008318,response,1,reliable,0.7847670000046492,3,other,positive
REMIND-1097,1,2022-12-14_16h35.34.633,task-selfref_run-01,59.68552885346407,1671054077.4539526,139.94983130006585,fixation,1,,,,,
REMIND-1097,1,2022-12-14_16h35.34.633,task-selfref_run-01,59.68552885346407,1671054080.0390372,142.53491270006634,fixation,1,,,,,
REMIND-1097,1,2022-12-14_16h35.34.633,task-selfref_run-01,59.68552885346407,1671054080.1040225,142.60034740006085,word_presentation,1,bad,,,self,negative
REMIND-1097,1,2022-12-14_16h35.34.633,task-selfref_run-01,59.68552885346407,1671054080.8491952,143.34513900009915,response,1,bad,0.809228099999018,2,self,negative
REMIND-1097,1,2022-12-14_16h35.34.633,task-selfref_run-01,59.68552885346407,1671054083.1986449,145.69451790000312,fixation,1,,,,,
REMIND-1097,1,2022-12-14_16h35.34.633,task-selfref_run-01,59.68552885346407,1671054083.2710557,145.76709850004409,word_presentation,1,wise,,,self,positive
REMIND-1097,1,2022-12-14_16h35.34.633,task-selfref_run-01,59.68552885346407,1671054085.3415008,147.83791590004694,response,1,wise,2.142301000072621,3,self,positive
REMIND-1097,1,2022-12-14_16h35.34.633,task-selfref_run-01,59.68552885346407,1671054085.4204557,147.91689590003807,response,1,wise,2.2212808000622317,3,self,positive
REMIND-1097,1,2022-12-14_16h35.34.633,task-selfref_run-01,59.68552885346407,1671054087.0755618,149.57142860000022,fixation,1,,,,,
REMIND-1097,1,2022-12-14_16h35.34.633,task-selfref_run-01,59.68552885346407,1671054087.135963,149.63221489998978,word_presentation,1,flexible,,,self,positive
REMIND-1097,1,2022-12-14_16h35.34.633,task-selfref_run-01,59.68552885346407,1671054088.2292576,150.72620460006874,response,1,flexible,1.1538240999216214,3,self,positive
REMIND-1097,1,2022-12-14_16h35.34.633,task-selfref_run-01,59.68552885346407,1671054090.2884192,152.7843110000249,fixation,1,,,,,
REMIND-1097,1,2022-12-14_16h35.34.633,task-selfref_run-01,59.68552885346407,1671054090.3539002,152.84972960001323,word_presentation,1,observant,,,self,positive
REMIND-1097,1,2022-12-14_16h35.34.633,task-selfref_run-01,59.68552885346407,1671054091.7172322,154.213170300005,response,1,observant,1.4278934999601915,3,self,positive
REMIND-1097,1,2022-12-14_16h35.34.633,task-selfref_run-01,59.68552885346407,1671054094.9582565,157.45412400003988,fixation,1,,,,,
REMIND-1097,1,2022-12-14_16h35.34.633,task-selfref_run-01,59.68552885346407,1671054095.0200422,157.51634990004823,word_presentation,1,timid,,,self,negative
REMIND-1097,1,2022-12-14_16h35.34.633,task-selfref_run-01,59.68552885346407,1671054096.4243608,158.92102580005303,response,1,timid,1.4659526000032201,2,self,negative
REMIND-1097,1,2022-12-14_16h35.34.633,task-selfref_run-01,59.68552885346407,1671054098.6426966,161.13861980009824,fixation,1,,,,,
REMIND-1097,1,2022-12-14_16h35.34.633,task-selfref_run-01,59.68552885346407,1671054098.6840918,161.18036890006624,word_presentation,1,disagreeable,,,self,negative
REMIND-1097,1,2022-12-14_16h35.34.633,task-selfref_run-01,59.68552885346407,1671054099.951399,162.44803750002757,response,1,disagreeable,1.3085446000332013,2,self,negative
REMIND-1097,1,2022-12-14_16h35.34.633,task-selfref_run-01,59.68552885346407,1671054109.1361055,171.63197280000895,fixation,1,,,,,
REMIND-1097,1,2022-12-14_16h35.34.633,task-selfref_run-01,59.68552885346407,1671054111.7033682,174.1992643000558,fixation,1,,,,,
REMIND-1097,1,2022-12-14_16h35.34.633,task-selfref_run-01,59.68552885346407,1671054111.770811,174.2671414000215,word_presentation,1,stern,,,other,negative
REMIND-1097,1,2022-12-14_16h35.34.633,task-selfref_run-01,59.68552885346407,1671054112.6550145,175.15109350008424,response,1,stern,0.9508412999566644,2,other,negative
REMIND-1097,1,2022-12-14_16h35.34.633,task-selfref_run-01,59.68552885346407,1671054116.853104,179.3490353000816,fixation,1,,,,,
REMIND-1097,1,2022-12-14_16h35.34.633,task-selfref_run-01,59.68552885346407,1671054116.903418,179.39985620009247,word_presentation,1,hostile,,,other,negative
REMIND-1097,1,2022-12-14_16h35.34.633,task-selfref_run-01,59.68552885346407,1671054117.6495926,180.1459623000119,response,1,hostile,0.7959196999436244,2,other,negative
REMIND-1097,1,2022-12-14_16h35.34.633,task-selfref_run-01,59.68552885346407,1671054122.9936771,185.4895583000034,fixation,1,,,,,
REMIND-1097,1,2022-12-14_16h35.34.633,task-selfref_run-01,59.68552885346407,1671054123.069512,185.56580070010386,word_presentation,1,bitter,,,other,negative
REMIND-1097,1,2022-12-14_16h35.34.633,task-selfref_run-01,59.68552885346407,1671054123.8496954,186.34607230010442,response,1,bitter,0.8555309999501333,2,other,negative
REMIND-1097,1,2022-12-14_16h35.34.633,task-selfref_run-01,59.68552885346407,1671054126.0184927,188.51436600007582,fixation,1,,,,,
REMIND-1097,1,2022-12-14_16h35.34.633,task-selfref_run-01,59.68552885346407,1671054126.0692267,188.56555060006212,word_presentation,1,nice,,,other,positive
REMIND-1097,1,2022-12-14_16h35.34.633,task-selfref_run-01,59.68552885346407,1671054127.1306903,189.62700249999762,response,1,nice,1.1116492999717593,3,other,positive
REMIND-1097,1,2022-12-14_16h35.34.633,task-selfref_run-01,59.68552885346407,1671054129.3988767,191.89474610006437,fixation,1,,,,,
REMIND-1097,1,2022-12-14_16h35.34.633,task-selfref_run-01,59.68552885346407,1671054129.4690466,191.9653747000266,word_presentation,1,sophisticated,,,other,positive
REMIND-1097,1,2022-12-14_16h35.34.633,task-selfref_run-01,59.68552885346407,1671054130.6553357,193.1521254000254,response,1,sophisticated,1.2563656000420451,3,other,positive
REMIND-1097,1,2022-12-14_16h35.34.633,task-selfref_run-01,59.68552885346407,1671054132.5424523,195.03831930004526,fixation,1,,,,,
REMIND-1097,1,2022-12-14_16h35.34.633,task-selfref_run-01,59.68552885346407,1671054132.6030562,195.09939730004407,word_presentation,1,artistic,,,other,positive
REMIND-1097,1,2022-12-14_16h35.34.633,task-selfref_run-01,59.68552885346407,1671054133.2672544,195.764061300084,response,1,artistic,0.7248981000157073,3,other,positive
REMIND-1097,1,2022-12-14_16h35.34.633,task-selfref_run-01,59.68552885346407,1671054143.0352235,205.53108099999372,fixation,1,,,,,
REMIND-1097,1,2022-12-14_16h35.34.633,task-selfref_run-01,59.68552885346407,1671054145.6214259,208.11734810005873,fixation,1,,,,,
REMIND-1097,1,2022-12-14_16h35.34.633,task-selfref_run-01,59.68552885346407,1671054145.6859825,208.1822655000724,word_presentation,1,self-indulgent,,,self,negative
REMIND-1097,1,2022-12-14_16h35.34.633,task-selfref_run-01,59.68552885346407,1671054147.3403778,209.8370855000103,response,1,self-indulgent,1.7187843000283465,2,self,negative
REMIND-1097,1,2022-12-14_16h35.34.633,task-selfref_run-01,59.68552885346407,1671054151.5699875,214.06584350008052,fixation,1,,,,,
REMIND-1097,1,2022-12-14_16h35.34.633,task-selfref_run-01,59.68552885346407,1671054151.6176624,214.1139185000211,word_presentation,1,fearless,,,self,positive
REMIND-1097,1,2022-12-14_16h35.34.633,task-selfref_run-01,59.68552885346407,1671054152.6579626,215.15467519999947,response,1,fearless,1.0879399999976158,2,self,positive
REMIND-1097,1,2022-12-14_16h35.34.633,task-selfref_run-01,59.68552885346407,1671054157.0594842,219.55533870006911,fixation,1,,,,,
REMIND-1097,1,2022-12-14_16h35.34.633,task-selfref_run-01,59.68552885346407,1671054157.1346314,219.63081390003208,word_presentation,1,humorous,,,self,positive
REMIND-1097,1,2022-12-14_16h35.34.633,task-selfref_run-01,59.68552885346407,1671054158.155935,220.6520990000572,response,1,humorous,1.095778200076893,3,self,positive
REMIND-1097,1,2022-12-14_16h35.34.633,task-selfref_run-01,59.68552885346407,1671054160.1390786,222.6349682,fixation,1,,,,,
REMIND-1097,1,2022-12-14_16h35.34.633,task-selfref_run-01,59.68552885346407,1671054160.2012684,222.69759260001592,word_presentation,1,greedy,,,self,negative
REMIND-1097,1,2022-12-14_16h35.34.633,task-selfref_run-01,59.68552885346407,1671054161.2357209,223.73216320003849,response,1,greedy,1.0962009000359103,2,self,negative
REMIND-1097,1,2022-12-14_16h35.34.633,task-selfref_run-01,59.68552885346407,1671054163.3946834,225.89060550008435,fixation,1,,,,,
REMIND-1097,1,2022-12-14_16h35.34.633,task-selfref_run-01,59.68552885346407,1671054163.4512267,225.94752390007488,word_presentation,1,admirable,,,self,positive
REMIND-1097,1,2022-12-14_16h35.34.633,task-selfref_run-01,59.68552885346407,1671054164.8935733,227.3899512999924,response,1,admirable,1.4984531999798492,3,self,positive
REMIND-1097,1,2022-12-14_16h35.34.633,task-selfref_run-01,59.68552885346407,1671054166.5219684,229.0178232000908,fixation,1,,,,,
REMIND-1097,1,2022-12-14_16h35.34.633,task-selfref_run-01,59.68552885346407,1671054166.5845528,229.080820400035,word_presentation,1,detached,,,self,negative
REMIND-1097,1,2022-12-14_16h35.34.633,task-selfref_run-01,59.68552885346407,1671054167.62401,230.1199761000462,response,1,detached,1.1013604000909254,2,self,negative
REMIND-1097,1,2022-12-14_16h35.34.633,task-selfref_run-01,59.68552885346407,1671054177.0181236,239.51401410007384,fixation,1,,,,,
REMIND-1097,1,2022-12-14_16h35.34.633,task-selfref_run-01,59.68552885346407,1671054179.585542,242.08149810007308,fixation,1,,,,,
REMIND-1097,1,2022-12-14_16h35.34.633,task-selfref_run-01,59.68552885346407,1671054179.650747,242.14707679999992,word_presentation,1,brave,,,self,positive
REMIND-1097,1,2022-12-14_16h35.34.633,task-selfref_run-01,59.68552885346407,1671054181.4261632,243.9229707000777,response,1,brave,1.8404781999997795,2,self,positive
REMIND-1097,1,2022-12-14_16h35.34.633,task-selfref_run-01,59.68552885346407,1671054184.1751385,246.6710851000389,fixation,1,,,,,
REMIND-1097,1,2022-12-14_16h35.34.633,task-selfref_run-01,59.68552885346407,1671054184.2342267,246.73013770009857,word_presentation,1,creative,,,self,positive
REMIND-1097,1,2022-12-14_16h35.34.633,task-selfref_run-01,59.68552885346407,1671054185.1534328,247.65004360000603,response,1,creative,0.9779530999949202,3,self,positive
REMIND-1097,1,2022-12-14_16h35.34.633,task-selfref_run-01,59.68552885346407,1671054189.3748884,251.8707517000148,fixation,1,,,,,
REMIND-1097,1,2022-12-14_16h35.34.633,task-selfref_run-01,59.68552885346407,1671054189.4478748,251.9440039000474,word_presentation,1,self-discipline,,,self,positive
REMIND-1097,1,2022-12-14_16h35.34.633,task-selfref_run-01,59.68552885346407,1671054190.6201727,253.11610400001518,response,1,self-discipline,1.2442327999742702,3,self,positive
REMIND-1097,1,2022-12-14_16h35.34.633,task-selfref_run-01,59.68552885346407,1671054193.7355597,256.2314134000335,fixation,1,,,,,
REMIND-1097,1,2022-12-14_16h35.34.633,task-selfref_run-01,59.68552885346407,1671054193.8002908,256.296611100086,word_presentation,1,spiteful,,,self,negative
REMIND-1097,1,2022-12-14_16h35.34.633,task-selfref_run-01,59.68552885346407,1671054194.6124964,257.10906930000056,response,1,spiteful,0.876667800010182,2,self,negative
REMIND-1097,1,2022-12-14_16h35.34.633,task-selfref_run-01,59.68552885346407,1671054196.904703,259.40058660006616,fixation,1,,,,,
REMIND-1097,1,2022-12-14_16h35.34.633,task-selfref_run-01,59.68552885346407,1671054196.966756,259.4629400999984,word_presentation,1,argumentative,,,self,negative
REMIND-1097,1,2022-12-14_16h35.34.633,task-selfref_run-01,59.68552885346407,1671054198.1160374,260.61215340008494,response,1,argumentative,1.2106082000536844,2,self,negative
REMIND-1097,1,2022-12-14_16h35.34.633,task-selfref_run-01,59.68552885346407,1671054200.2095432,262.7054132000776,fixation,1,,,,,
REMIND-1097,1,2022-12-14_16h35.34.633,task-selfref_run-01,59.68552885346407,1671054200.2665982,262.76269710005727,word_presentation,1,pessimistic,,,self,negative
REMIND-1097,1,2022-12-14_16h35.34.633,task-selfref_run-01,59.68552885346407,1671054201.4838743,263.97994580003433,response,1,pessimistic,1.273747600032948,2,self,negative
REMIND-1097,1,2022-12-14_16h35.34.633,task-selfref_run-01,59.68552885346407,1671054210.718984,273.21490760007873,fixation,1,,,,,
REMIND-1097,1,2022-12-14_16h35.34.633,task-selfref_run-01,59.68552885346407,1671054213.31804,275.813920399989,fixation,1,,,,,
REMIND-1097,1,2022-12-14_16h35.34.633,task-selfref_run-01,59.68552885346407,1671054213.3828077,275.8791418999899,word_presentation,1,resourceful,,,other,positive
REMIND-1097,1,2022-12-14_16h35.34.633,task-selfref_run-01,59.68552885346407,1671054214.2410035,276.7370186999906,response,1,resourceful,0.9221422999398783,3,other,positive
REMIND-1097,1,2022-12-14_16h35.34.633,task-selfref_run-01,59.68552885346407,1671054217.5575383,280.0534492000006,fixation,1,,,,,
REMIND-1097,1,2022-12-14_16h35.34.633,task-selfref_run-01,59.68552885346407,1671054217.6164072,280.11273699998856,word_presentation,1,irresponsible,,,other,negative
REMIND-1097,1,2022-12-14_16h35.34.633,task-selfref_run-01,59.68552885346407,1671054218.4056332,280.9018464999972,response,1,irresponsible,0.8473654999397695,2,other,negative
REMIND-1097,1,2022-12-14_16h35.34.633,task-selfref_run-01,59.68552885346407,1671054220.9571712,283.45305220002774,fixation,1,,,,,
REMIND-1097,1,2022-12-14_16h35.34.633,task-selfref_run-01,59.68552885346407,1671054221.0168846,283.51314220007043,word_presentation,1,troubled,,,other,negative
REMIND-1097,1,2022-12-14_16h35.34.633,task-selfref_run-01,59.68552885346407,1671054221.9701734,284.4668663000921,response,1,troubled,1.0128057999536395,2,other,negative
REMIND-1097,1,2022-12-14_16h35.34.633,task-selfref_run-01,59.68552885346407,1671054224.7300472,287.2259214000078,fixation,1,,,,,
REMIND-1097,1,2022-12-14_16h35.34.633,task-selfref_run-01,59.68552885346407,1671054224.781966,287.27807380002923,word_presentation,1,affectionate,,,other,positive
REMIND-1097,1,2022-12-14_16h35.34.633,task-selfref_run-01,59.68552885346407,1671054226.2953098,288.7918518000515,response,1,affectionate,1.5649359000381082,3,other,positive
REMIND-1097,1,2022-12-14_16h35.34.633,task-selfref_run-01,59.68552885346407,1671054229.2144508,291.7103199000703,fixation,1,,,,,
REMIND-1097,1,2022-12-14_16h35.34.633,task-selfref_run-01,59.68552885346407,1671054229.2656815,291.76162700005807,word_presentation,1,toxic,,,other,negative
REMIND-1097,1,2022-12-14_16h35.34.633,task-selfref_run-01,59.68552885346407,1671054230.0868657,292.5828563000541,response,1,toxic,0.8716863000299782,2,other,negative
REMIND-1097,1,2022-12-14_16h35.34.633,task-selfref_run-01,59.68552885346407,1671054232.7166147,295.2125573999947,fixation,1,,,,,
REMIND-1097,1,2022-12-14_16h35.34.633,task-selfref_run-01,59.68552885346407,1671054232.7633696,295.2596324000042,word_presentation,1,entertaining,,,other,positive
REMIND-1097,1,2022-12-14_16h35.34.633,task-selfref_run-01,59.68552885346407,1671054233.7528489,296.2489023000235,response,1,entertaining,1.0354114000219852,3,other,positive
REMIND-1097,1,2022-12-14_16h35.34.633,task-selfref_run-01,59.68552885346407,1671054243.2157793,305.7117336000083,fixation,1,,,,,
REMIND-1097,1,2022-12-14_16h35.34.633,task-selfref_run-01,59.68552885346407,1671054245.8005586,308.2964157999959,fixation,1,,,,,
REMIND-1097,1,2022-12-14_16h35.34.633,task-selfref_run-01,59.68552885346407,1671054245.8651557,308.36156650003977,word_presentation,1,materialistic,,,semantic,negative
REMIND-1097,1,2022-12-14_16h35.34.633,task-selfref_run-01,59.68552885346407,1671054246.8406,309.33702350000385,response,1,materialistic,1.0396273999940604,2,semantic,negative
REMIND-1097,1,2022-12-14_16h35.34.633,task-selfref_run-01,59.68552885346407,1671054248.9097307,311.40567160001956,fixation,1,,,,,
REMIND-1097,1,2022-12-14_16h35.34.633,task-selfref_run-01,59.68552885346407,1671054248.965664,311.46197850001045,word_presentation,1,unruly,,,semantic,negative
REMIND-1097,1,2022-12-14_16h35.34.633,task-selfref_run-01,59.68552885346407,1671054253.4765146,315.9723615000257,fixation,1,,,,,
REMIND-1097,1,2022-12-14_16h35.34.633,task-selfref_run-01,59.68552885346407,1671054253.5318267,316.0277662000153,word_presentation,1,competent,,,semantic,positive
REMIND-1097,1,2022-12-14_16h35.34.633,task-selfref_run-01,59.68552885346407,1671054254.313046,316.80892270000186,response,1,competent,0.8355712000047788,3,semantic,positive
REMIND-1097,1,2022-12-14_16h35.34.633,task-selfref_run-01,59.68552885346407,1671054258.8624644,321.3583198999986,fixation,1,,,,,
REMIND-1097,1,2022-12-14_16h35.34.633,task-selfref_run-01,59.68552885346407,1671054258.9316678,321.4278973999899,word_presentation,1,arrogant,,,semantic,negative
REMIND-1097,1,2022-12-14_16h35.34.633,task-selfref_run-01,59.68552885346407,1671054259.7408986,322.23692950000986,response,1,arrogant,0.8775895000435412,2,semantic,negative
REMIND-1097,1,2022-12-14_16h35.34.633,task-selfref_run-01,59.68552885346407,1671054263.0356612,325.5315260000061,fixation,1,,,,,
REMIND-1097,1,2022-12-14_16h35.34.633,task-selfref_run-01,59.68552885346407,1671054263.0981023,325.5939293000847,word_presentation,1,forgiving,,,semantic,positive
REMIND-1097,1,2022-12-14_16h35.34.633,task-selfref_run-01,59.68552885346407,1671054264.089555,326.5859960000962,response,1,forgiving,1.0535191999515519,3,semantic,positive
REMIND-1097,1,2022-12-14_16h35.34.633,task-selfref_run-01,59.68552885346407,1671054266.5106812,329.00654080009554,fixation,1,,,,,
REMIND-1097,1,2022-12-14_16h35.34.633,task-selfref_run-01,59.68552885346407,1671054266.5810933,329.0774158000713,word_presentation,1,down-to-earth,,,semantic,positive
REMIND-1097,1,2022-12-14_16h35.34.633,task-selfref_run-01,59.68552885346407,1671054268.094456,330.5908415000886,response,1,down-to-earth,1.5833671999862418,3,semantic,positive
