participant,session,date,exp_name,frame_rate,absolute_time,trigger_time,trial_type,trial_num,word,response_time,reponse_key
remind-99,1,2022-11-03_13h52.53.494,task-selfref_run-01,60.5406390429275,1667498160.946927,,instructions,,,,
remind-99,1,2022-11-03_13h52.53.494,task-selfref_run-01,60.5406390429275,1667498253.4388158,279.28134890273213,fixation,1,,,
remind-99,1,2022-11-03_13h52.53.494,task-selfref_run-01,60.5406390429275,1667498256.954976,282.79759800061584,fixation,1,,,
remind-99,1,2022-11-03_13h52.53.494,task-selfref_run-01,60.5406390429275,1667498262.538422,288.38103030249476,fixation,1,,,
remind-99,1,2022-11-03_13h52.53.494,task-selfref_run-01,60.5406390429275,1667498266.054966,291.8975162021816,fixation,1,,,
remind-99,1,2022-11-03_13h52.53.494,task-selfref_run-01,60.5406390429275,1667498271.6383781,297.48090990260243,fixation,1,,,
remind-99,1,2022-11-03_13h52.53.494,task-selfref_run-01,60.5406390429275,1667498275.154478,300.99711360037327,fixation,1,,,
remind-99,1,2022-11-03_13h52.53.494,task-selfref_run-01,60.5406390429275,1667498323.0565732,0,trigger,,,,
remind-99,1,2022-11-03_13h52.53.494,task-selfref_run-01,60.5406390429275,1667498331.088472,8.031189199537039,fixation,1,,,
remind-99,1,2022-11-03_13h52.53.494,task-selfref_run-01,60.5406390429275,1667498333.7354996,10.678662899881601,fixation,1,,,
remind-99,1,2022-11-03_13h52.53.494,task-selfref_run-01,60.5406390429275,1667498333.8021019,10.74511619657278,word_presentation,1,youthful,,
remind-99,1,2022-11-03_13h52.53.494,task-selfref_run-01,60.5406390429275,1667498334.0081692,10.951211899518967,response,1,youthful,0.2718137986958027,escape
participant,session,date,exp_name,frame_rate,absolute_time,trigger_time,trial_type,trial_num,word,response_time,reponse_key
remind-99,1,2022-11-03_13h59.48.817,task-selfref_run-01,60.142199141980065,1667498395.2205434,,instructions,,,,
remind-99,1,2022-11-03_13h59.48.817,task-selfref_run-01,60.142199141980065,1667498417.88348,28.45397949963808,fixation,1,,,
remind-99,1,2022-11-03_13h59.48.817,task-selfref_run-01,60.142199141980065,1667498421.3996918,31.970785297453403,fixation,1,,,
remind-99,1,2022-11-03_13h59.48.817,task-selfref_run-01,60.142199141980065,1667498426.9828863,37.55349799990654,fixation,1,,,
remind-99,1,2022-11-03_13h59.48.817,task-selfref_run-01,60.142199141980065,1667498430.500037,41.07059819996357,fixation,1,,,
remind-99,1,2022-11-03_13h59.48.817,task-selfref_run-01,60.142199141980065,1667498436.082361,46.65285800024867,fixation,1,,,
remind-99,1,2022-11-03_13h59.48.817,task-selfref_run-01,60.142199141980065,1667498439.5992389,50.169735200703144,fixation,1,,,
remind-99,1,2022-11-03_13h59.48.817,task-selfref_run-01,60.142199141980065,1667498499.955827,0,trigger,,,,
remind-99,1,2022-11-03_13h59.48.817,task-selfref_run-01,60.142199141980065,1667498508.000164,8.044108301401138,fixation,1,,,
remind-99,1,2022-11-03_13h59.48.817,task-selfref_run-01,60.142199141980065,1667498510.547022,10.591075100004673,fixation,1,,,
remind-99,1,2022-11-03_13h59.48.817,task-selfref_run-01,60.142199141980065,1667498510.6791277,10.723457001149654,word_presentation,1,merry,,
remind-99,1,2022-11-03_13h59.48.817,task-selfref_run-01,60.142199141980065,1667498511.6355956,11.680073399096727,response,1,merry,1.0882608033716679,2
remind-99,1,2022-11-03_13h59.48.817,task-selfref_run-01,60.142199141980065,1667498514.133526,14.177477099001408,fixation,1,,,
remind-99,1,2022-11-03_13h59.48.817,task-selfref_run-01,60.142199141980065,1667498514.1954985,14.23975620046258,word_presentation,1,intolerant,,
remind-99,1,2022-11-03_13h59.48.817,task-selfref_run-01,60.142199141980065,1667498517.156435,17.2004810012877,fixation,1,,,
remind-99,1,2022-11-03_13h59.48.817,task-selfref_run-01,60.142199141980065,1667498517.230976,17.274987000972033,word_presentation,1,unsympathetic,,
remind-99,1,2022-11-03_13h59.48.817,task-selfref_run-01,60.142199141980065,1667498518.6747594,18.71904020011425,response,1,unsympathetic,1.5177153013646603,1
remind-99,1,2022-11-03_13h59.48.817,task-selfref_run-01,60.142199141980065,1667498521.3799603,21.423917300999165,fixation,1,,,
remind-99,1,2022-11-03_13h59.48.817,task-selfref_run-01,60.142199141980065,1667498521.446114,21.490552600473166,word_presentation,1,fair,,
remind-99,1,2022-11-03_13h59.48.817,task-selfref_run-01,60.142199141980065,1667498522.2623208,22.306941099464893,response,1,fair,0.882192600518465,2
remind-99,1,2022-11-03_13h59.48.817,task-selfref_run-01,60.142199141980065,1667498526.1959915,26.24047090113163,fixation,1,,,
remind-99,1,2022-11-03_13h59.48.817,task-selfref_run-01,60.142199141980065,1667498526.2619288,26.306193601340055,word_presentation,1,triumphant,,
remind-99,1,2022-11-03_13h59.48.817,task-selfref_run-01,60.142199141980065,1667498527.2111495,27.25581879913807,response,1,triumphant,1.0146192982792854,2
remind-99,1,2022-11-03_13h59.48.817,task-selfref_run-01,60.142199141980065,1667498529.8529294,29.896876201033592,fixation,1,,,
remind-99,1,2022-11-03_13h59.48.817,task-selfref_run-01,60.142199141980065,1667498529.930367,29.974326699972153,word_presentation,1,insensitive,,
remind-99,1,2022-11-03_13h59.48.817,task-selfref_run-01,60.142199141980065,1667498530.8885794,30.932931002229452,response,1,insensitive,1.0352797992527485,1
remind-99,1,2022-11-03_13h59.48.817,task-selfref_run-01,60.142199141980065,1667498540.3798604,40.42390380054712,fixation,1,,,
remind-99,1,2022-11-03_13h59.48.817,task-selfref_run-01,60.142199141980065,1667498542.9631777,43.00711990147829,fixation,1,,,
remind-99,1,2022-11-03_13h59.48.817,task-selfref_run-01,60.142199141980065,1667498543.0114973,43.055816899985075,word_presentation,1,unkind,,
remind-99,1,2022-11-03_13h59.48.817,task-selfref_run-01,60.142199141980065,1667498543.9005742,43.94512649998069,response,1,unkind,0.9372682012617588,1
remind-99,1,2022-11-03_13h59.48.817,task-selfref_run-01,60.142199141980065,1667498546.889371,46.933319199830294,fixation,1,,,
remind-99,1,2022-11-03_13h59.48.817,task-selfref_run-01,60.142199141980065,1667498546.9450684,46.989361099898815,word_presentation,1,helpful,,
remind-99,1,2022-11-03_13h59.48.817,task-selfref_run-01,60.142199141980065,1667498547.5812325,47.625913601368666,response,1,helpful,0.6917909979820251,2
remind-99,1,2022-11-03_13h59.48.817,task-selfref_run-01,60.142199141980065,1667498550.67167,50.71620760113001,fixation,1,,,
remind-99,1,2022-11-03_13h59.48.817,task-selfref_run-01,60.142199141980065,1667498550.7445133,50.788785599172115,word_presentation,1,responsible,,
remind-99,1,2022-11-03_13h59.48.817,task-selfref_run-01,60.142199141980065,1667498551.6887453,51.73296229913831,response,1,responsible,1.0159993022680283,2
remind-99,1,2022-11-03_13h59.48.817,task-selfref_run-01,60.142199141980065,1667498554.8851235,54.92916560173035,fixation,1,,,
remind-99,1,2022-11-03_13h59.48.817,task-selfref_run-01,60.142199141980065,1667498554.9447472,54.98885330185294,word_presentation,1,understanding,,
remind-99,1,2022-11-03_13h59.48.817,task-selfref_run-01,60.142199141980065,1667498555.9099696,55.95389150083065,response,1,understanding,1.023949097841978,2
remind-99,1,2022-11-03_13h59.48.817,task-selfref_run-01,60.142199141980065,1667498559.3655918,59.40953320264816,fixation,1,,,
remind-99,1,2022-11-03_13h59.48.817,task-selfref_run-01,60.142199141980065,1667498559.4279332,59.4722511023283,word_presentation,1,unhappy,,
remind-99,1,2022-11-03_13h59.48.817,task-selfref_run-01,60.142199141980065,1667498560.4171574,60.46200570091605,response,1,unhappy,1.0517452992498875,1
remind-99,1,2022-11-03_13h59.48.817,task-selfref_run-01,60.142199141980065,1667498563.308479,63.352533400058746,fixation,1,,,
remind-99,1,2022-11-03_13h59.48.817,task-selfref_run-01,60.142199141980065,1667498563.3936877,63.437976002693176,word_presentation,1,volatile,,
remind-99,1,2022-11-03_13h59.48.817,task-selfref_run-01,60.142199141980065,1667498565.4997864,65.54388010129333,response,1,volatile,2.1905694976449013,1
remind-99,1,2022-11-03_13h59.48.817,task-selfref_run-01,60.142199141980065,1667498573.828303,73.87234600260854,fixation,1,,,
remind-99,1,2022-11-03_13h59.48.817,task-selfref_run-01,60.142199141980065,1667498576.4111958,76.45523770153522,fixation,1,,,
remind-99,1,2022-11-03_13h59.48.817,task-selfref_run-01,60.142199141980065,1667498576.4767861,76.52108240127563,word_presentation,1,dreadful,,
remind-99,1,2022-11-03_13h59.48.817,task-selfref_run-01,60.142199141980065,1667498577.6693914,77.71366570144892,response,1,dreadful,1.2576301991939545,1
remind-99,1,2022-11-03_13h59.48.817,task-selfref_run-01,60.142199141980065,1667498580.0379207,80.08193700015545,fixation,1,,,
remind-99,1,2022-11-03_13h59.48.817,task-selfref_run-01,60.142199141980065,1667498580.0933204,80.13757029920816,word_presentation,1,disciplined,,
remind-99,1,2022-11-03_13h59.48.817,task-selfref_run-01,60.142199141980065,1667498581.6096,81.65370140224695,response,1,disciplined,1.571025799959898,2
remind-99,1,2022-11-03_13h59.48.817,task-selfref_run-01,60.142199141980065,1667498584.4412303,84.48517290130258,fixation,1,,,
remind-99,1,2022-11-03_13h59.48.817,task-selfref_run-01,60.142199141980065,1667498584.5102334,84.5546106994152,word_presentation,1,youthful,,
remind-99,1,2022-11-03_13h59.48.817,task-selfref_run-01,60.142199141980065,1667498585.5207481,85.56486500054598,response,1,youthful,1.078933198004961,2
remind-99,1,2022-11-03_13h59.48.817,task-selfref_run-01,60.142199141980065,1667498588.6312308,88.67518690228462,fixation,1,,,
remind-99,1,2022-11-03_13h59.48.817,task-selfref_run-01,60.142199141980065,1667498588.7101192,88.75445280224085,word_presentation,1,unpleasant,,
remind-99,1,2022-11-03_13h59.48.817,task-selfref_run-01,60.142199141980065,1667498589.6588764,89.70288960263133,response,1,unpleasant,1.0269231982529163,1
remind-99,1,2022-11-03_13h59.48.817,task-selfref_run-01,60.142199141980065,1667498592.194035,92.2379898019135,fixation,1,,,
remind-99,1,2022-11-03_13h59.48.817,task-selfref_run-01,60.142199141980065,1667498592.2427404,92.28704009950161,word_presentation,1,cowardly,,
remind-99,1,2022-11-03_13h59.48.817,task-selfref_run-01,60.142199141980065,1667498593.0885034,93.13301280140877,response,1,cowardly,0.8942699991166592,1
remind-99,1,2022-11-03_13h59.48.817,task-selfref_run-01,60.142199141980065,1667498595.7207754,95.76476030051708,fixation,1,,,
remind-99,1,2022-11-03_13h59.48.817,task-selfref_run-01,60.142199141980065,1667498595.7926888,95.83723340183496,word_presentation,1,skilled,,
remind-99,1,2022-11-03_13h59.48.817,task-selfref_run-01,60.142199141980065,1667498596.8772137,96.92210000008345,response,1,skilled,1.1565429009497166,2
remind-99,1,2022-11-03_13h59.48.817,task-selfref_run-01,60.142199141980065,1667498606.2431924,106.28721940144897,fixation,1,,,
remind-99,1,2022-11-03_13h59.48.817,task-selfref_run-01,60.142199141980065,1667498608.8269706,108.87093660235405,fixation,1,,,
remind-99,1,2022-11-03_13h59.48.817,task-selfref_run-01,60.142199141980065,1667498608.8755116,108.91984369978309,word_presentation,1,ignorant,,
remind-99,1,2022-11-03_13h59.48.817,task-selfref_run-01,60.142199141980065,1667498609.8662834,109.91081419959664,response,1,ignorant,1.0391228012740612,1
remind-99,1,2022-11-03_13h59.48.817,task-selfref_run-01,60.142199141980065,1667498615.4838371,115.5277862995863,fixation,1,,,
remind-99,1,2022-11-03_13h59.48.817,task-selfref_run-01,60.142199141980065,1667498615.5609524,115.60531819984317,word_presentation,1,thoughtful,,
remind-99,1,2022-11-03_13h59.48.817,task-selfref_run-01,60.142199141980065,1667498616.3407025,116.38477570191026,response,1,thoughtful,0.8562332987785339,2
remind-99,1,2022-11-03_13h59.48.817,task-selfref_run-01,60.142199141980065,1667498618.6287556,118.67279190197587,fixation,1,,,
remind-99,1,2022-11-03_13h59.48.817,task-selfref_run-01,60.142199141980065,1667498618.692444,118.73692220076919,word_presentation,1,inefficient,,
remind-99,1,2022-11-03_13h59.48.817,task-selfref_run-01,60.142199141980065,1667498620.1026516,120.14671220257878,response,1,inefficient,1.473120503127575,1
remind-99,1,2022-11-03_13h59.48.817,task-selfref_run-01,60.142199141980065,1667498622.4727125,122.51666620001197,fixation,1,,,
remind-99,1,2022-11-03_13h59.48.817,task-selfref_run-01,60.142199141980065,1667498622.5421324,122.58635460212827,word_presentation,1,unproductive,,
remind-99,1,2022-11-03_13h59.48.817,task-selfref_run-01,60.142199141980065,1667498623.5425353,123.5869356021285,response,1,unproductive,1.0693458020687103,1
remind-99,1,2022-11-03_13h59.48.817,task-selfref_run-01,60.142199141980065,1667498626.0626452,126.10659340023994,fixation,1,,,
remind-99,1,2022-11-03_13h59.48.817,task-selfref_run-01,60.142199141980065,1667498626.10875,126.15301300212741,word_presentation,1,mature,,
remind-99,1,2022-11-03_13h59.48.817,task-selfref_run-01,60.142199141980065,1667498627.084989,127.12979470193386,response,1,mature,1.0224650986492634,2
remind-99,1,2022-11-03_13h59.48.817,task-selfref_run-01,60.142199141980065,1667498629.6661482,129.71009800210595,fixation,1,,,
remind-99,1,2022-11-03_13h59.48.817,task-selfref_run-01,60.142199141980065,1667498629.7417483,129.78598650172353,word_presentation,1,admirable,,
remind-99,1,2022-11-03_13h59.48.817,task-selfref_run-01,60.142199141980065,1667498630.4939396,130.53881090134382,response,1,admirable,0.8279408998787403,2
remind-99,1,2022-11-03_13h59.48.817,task-selfref_run-01,60.142199141980065,1667498640.1756682,140.22015780210495,fixation,1,,,
remind-99,1,2022-11-03_13h59.48.817,task-selfref_run-01,60.142199141980065,1667498642.7588985,142.80294620245695,fixation,1,,,
remind-99,1,2022-11-03_13h59.48.817,task-selfref_run-01,60.142199141980065,1667498642.824358,142.86870340257883,word_presentation,1,obnoxious,,
remind-99,1,2022-11-03_13h59.48.817,task-selfref_run-01,60.142199141980065,1667498643.9986694,144.04285220056772,response,1,obnoxious,1.239156998693943,1
remind-99,1,2022-11-03_13h59.48.817,task-selfref_run-01,60.142199141980065,1667498645.9362793,145.9803266003728,fixation,1,,,
remind-99,1,2022-11-03_13h59.48.817,task-selfref_run-01,60.142199141980065,1667498645.9910674,146.0353512018919,word_presentation,1,able,,
remind-99,1,2022-11-03_13h59.48.817,task-selfref_run-01,60.142199141980065,1667498647.0423052,147.08676970005035,response,1,able,1.1057008020579815,2
remind-99,1,2022-11-03_13h59.48.817,task-selfref_run-01,60.142199141980065,1667498649.8291442,149.87309870123863,fixation,1,,,
remind-99,1,2022-11-03_13h59.48.817,task-selfref_run-01,60.142199141980065,1667498649.9081903,149.95262160152197,word_presentation,1,modest,,
remind-99,1,2022-11-03_13h59.48.817,task-selfref_run-01,60.142199141980065,1667498651.496092,151.54070070013404,response,1,modest,1.6668681986629963,2
remind-99,1,2022-11-03_13h59.48.817,task-selfref_run-01,60.142199141980065,1667498653.06209,153.10613070055842,fixation,1,,,
remind-99,1,2022-11-03_13h59.48.817,task-selfref_run-01,60.142199141980065,1667498653.1076574,153.15187830105424,word_presentation,1,innovative,,
remind-99,1,2022-11-03_13h59.48.817,task-selfref_run-01,60.142199141980065,1667498654.6895804,154.73373660072684,response,1,innovative,1.6268488988280296,2
remind-99,1,2022-11-03_13h59.48.817,task-selfref_run-01,60.142199141980065,1667498657.7454555,157.78949639946222,fixation,1,,,
remind-99,1,2022-11-03_13h59.48.817,task-selfref_run-01,60.142199141980065,1667498657.826877,157.87126459926367,word_presentation,1,prejudiced,,
remind-99,1,2022-11-03_13h59.48.817,task-selfref_run-01,60.142199141980065,1667498659.109704,159.15377370268106,response,1,prejudiced,1.3635654002428055,1
remind-99,1,2022-11-03_13h59.48.817,task-selfref_run-01,60.142199141980065,1667498661.4480612,161.49256940186024,fixation,1,,,
remind-99,1,2022-11-03_13h59.48.817,task-selfref_run-01,60.142199141980065,1667498661.5072396,161.55150109902024,word_presentation,1,immoral,,
remind-99,1,2022-11-03_13h59.48.817,task-selfref_run-01,60.142199141980065,1667498662.5034835,162.54781889915466,response,1,immoral,1.054518699645996,1
remind-99,1,2022-11-03_13h59.48.817,task-selfref_run-01,60.142199141980065,1667498671.9753773,172.0194279998541,fixation,1,,,
remind-99,1,2022-11-03_13h59.48.817,task-selfref_run-01,60.142199141980065,1667498674.5570123,174.60172230005264,fixation,1,,,
remind-99,1,2022-11-03_13h59.48.817,task-selfref_run-01,60.142199141980065,1667498674.607073,174.65143639966846,word_presentation,1,terrible,,
remind-99,1,2022-11-03_13h59.48.817,task-selfref_run-01,60.142199141980065,1667498675.578292,175.62267560139298,response,1,terrible,1.020126797258854,1
remind-99,1,2022-11-03_13h59.48.817,task-selfref_run-01,60.142199141980065,1667498679.7244158,179.7683700993657,fixation,1,,,
remind-99,1,2022-11-03_13h59.48.817,task-selfref_run-01,60.142199141980065,1667498679.790219,179.83448960259557,word_presentation,1,cynical,,
remind-99,1,2022-11-03_13h59.48.817,task-selfref_run-01,60.142199141980065,1667498681.3034744,181.34760140255094,response,1,cynical,1.5783846005797386,2
remind-99,1,2022-11-03_13h59.48.817,task-selfref_run-01,60.142199141980065,1667498685.8813014,185.9253536015749,fixation,1,,,
remind-99,1,2022-11-03_13h59.48.817,task-selfref_run-01,60.142199141980065,1667498685.940021,185.98438220098615,word_presentation,1,cruel,,
remind-99,1,2022-11-03_13h59.48.817,task-selfref_run-01,60.142199141980065,1667498686.7342021,186.7787030003965,response,1,cruel,0.852596502751112,1
remind-99,1,2022-11-03_13h59.48.817,task-selfref_run-01,60.142199141980065,1667498688.9372923,188.98137000203133,fixation,1,,,
remind-99,1,2022-11-03_13h59.48.817,task-selfref_run-01,60.142199141980065,1667498689.0069947,189.05132510140538,word_presentation,1,gentle,,
remind-99,1,2022-11-03_13h59.48.817,task-selfref_run-01,60.142199141980065,1667498690.1437552,190.18767770007253,response,1,gentle,1.2055125012993813,2
remind-99,1,2022-11-03_13h59.48.817,task-selfref_run-01,60.142199141980065,1667498692.337147,192.38109460100532,fixation,1,,,
remind-99,1,2022-11-03_13h59.48.817,task-selfref_run-01,60.142199141980065,1667498692.3894465,192.43370449915528,word_presentation,1,wise,,
remind-99,1,2022-11-03_13h59.48.817,task-selfref_run-01,60.142199141980065,1667498693.411696,193.4556418992579,response,1,wise,1.0737899020314217,1
remind-99,1,2022-11-03_13h59.48.817,task-selfref_run-01,60.142199141980065,1667498693.4754603,193.5199679993093,response,1,wise,1.1381198018789291,2
remind-99,1,2022-11-03_13h59.48.817,task-selfref_run-01,60.142199141980065,1667498695.497263,195.54121870175004,fixation,1,,,
remind-99,1,2022-11-03_13h59.48.817,task-selfref_run-01,60.142199141980065,1667498695.5572426,195.60167380049825,word_presentation,1,original,,
remind-99,1,2022-11-03_13h59.48.817,task-selfref_run-01,60.142199141980065,1667498696.9615808,197.00564720109105,response,1,original,1.4636052995920181,2
remind-99,1,2022-11-03_13h59.48.817,task-selfref_run-01,60.142199141980065,1667498706.023932,206.06787180155516,fixation,1,,,
remind-99,1,2022-11-03_13h59.48.817,task-selfref_run-01,60.142199141980065,1667498708.6068864,208.65083369985223,fixation,1,,,
remind-99,1,2022-11-03_13h59.48.817,task-selfref_run-01,60.142199141980065,1667498708.6726763,208.7170208990574,word_presentation,1,smug,,
remind-99,1,2022-11-03_13h59.48.817,task-selfref_run-01,60.142199141980065,1667498709.6282916,209.67258819937706,response,1,smug,1.0208868011832237,1
remind-99,1,2022-11-03_13h59.48.817,task-selfref_run-01,60.142199141980065,1667498714.5737221,214.6177603006363,fixation,1,,,
remind-99,1,2022-11-03_13h59.48.817,task-selfref_run-01,60.142199141980065,1667498714.6064808,214.65096089988947,word_presentation,1,elegant,,
remind-99,1,2022-11-03_13h59.48.817,task-selfref_run-01,60.142199141980065,1667498715.9395733,215.98369270190597,response,1,elegant,1.36520079895854,1
remind-99,1,2022-11-03_13h59.48.817,task-selfref_run-01,60.142199141980065,1667498720.0799668,220.1239122003317,fixation,1,,,
remind-99,1,2022-11-03_13h59.48.817,task-selfref_run-01,60.142199141980065,1667498720.1556127,220.19989170134068,word_presentation,1,beautiful,,
remind-99,1,2022-11-03_13h59.48.817,task-selfref_run-01,60.142199141980065,1667498721.8170712,221.86174039915204,response,1,beautiful,1.7370480000972748,2
remind-99,1,2022-11-03_13h59.48.817,task-selfref_run-01,60.142199141980065,1667498723.1760507,223.22013550251722,fixation,1,,,
remind-99,1,2022-11-03_13h59.48.817,task-selfref_run-01,60.142199141980065,1667498723.238557,223.2828199006617,word_presentation,1,gloomy,,
remind-99,1,2022-11-03_13h59.48.817,task-selfref_run-01,60.142199141980065,1667498724.2568483,224.30164870247245,response,1,gloomy,1.0807643979787827,1
remind-99,1,2022-11-03_13h59.48.817,task-selfref_run-01,60.142199141980065,1667498726.4490855,226.49358820170164,fixation,1,,,
remind-99,1,2022-11-03_13h59.48.817,task-selfref_run-01,60.142199141980065,1667498726.5055532,226.54988880082965,word_presentation,1,romantic,,
remind-99,1,2022-11-03_13h59.48.817,task-selfref_run-01,60.142199141980065,1667498727.444785,227.48965400084853,response,1,romantic,0.995305597782135,2
remind-99,1,2022-11-03_13h59.48.817,task-selfref_run-01,60.142199141980065,1667498729.5929804,229.63715890049934,fixation,1,,,
remind-99,1,2022-11-03_13h59.48.817,task-selfref_run-01,60.142199141980065,1667498729.6548843,229.69914920255542,word_presentation,1,violent,,
remind-99,1,2022-11-03_13h59.48.817,task-selfref_run-01,60.142199141980065,1667498731.0181913,231.06267910078168,response,1,violent,1.4247560985386372,1
remind-99,1,2022-11-03_13h59.48.817,task-selfref_run-01,60.142199141980065,1667498740.1062517,240.15028290078044,fixation,1,,,
remind-99,1,2022-11-03_13h59.48.817,task-selfref_run-01,60.142199141980065,1667498742.6885216,242.73323230072856,fixation,1,,,
remind-99,1,2022-11-03_13h59.48.817,task-selfref_run-01,60.142199141980065,1667498742.754624,242.79896559938788,word_presentation,1,enthusiastic,,
remind-99,1,2022-11-03_13h59.48.817,task-selfref_run-01,60.142199141980065,1667498743.6658485,243.71059900149703,response,1,enthusiastic,0.9766032993793488,2
remind-99,1,2022-11-03_13h59.48.817,task-selfref_run-01,60.142199141980065,1667498747.2958488,247.33990890160203,fixation,1,,,
remind-99,1,2022-11-03_13h59.48.817,task-selfref_run-01,60.142199141980065,1667498747.3730848,247.41744780167937,word_presentation,1,brilliant,,
remind-99,1,2022-11-03_13h59.48.817,task-selfref_run-01,60.142199141980065,1667498752.5118015,252.55623710155487,fixation,1,,,
remind-99,1,2022-11-03_13h59.48.817,task-selfref_run-01,60.142199141980065,1667498752.5717535,252.61629550158978,word_presentation,1,sympathetic,,
remind-99,1,2022-11-03_13h59.48.817,task-selfref_run-01,60.142199141980065,1667498753.6660237,253.71071360260248,response,1,sympathetic,1.1536749005317688,2
remind-99,1,2022-11-03_13h59.48.817,task-selfref_run-01,60.142199141980065,1667498756.888407,256.9325612001121,fixation,1,,,
remind-99,1,2022-11-03_13h59.48.817,task-selfref_run-01,60.142199141980065,1667498756.9378438,256.9821472018957,word_presentation,1,dull,,
remind-99,1,2022-11-03_13h59.48.817,task-selfref_run-01,60.142199141980065,1667498757.850052,257.89458410069346,response,1,dull,0.961269099265337,1
remind-99,1,2022-11-03_13h59.48.817,task-selfref_run-01,60.142199141980065,1667498760.0748184,260.11932330206037,fixation,1,,,
remind-99,1,2022-11-03_13h59.48.817,task-selfref_run-01,60.142199141980065,1667498760.1370196,260.18127750232816,word_presentation,1,tiresome,,
remind-99,1,2022-11-03_13h59.48.817,task-selfref_run-01,60.142199141980065,1667498761.3375332,261.38160790130496,response,1,tiresome,1.261503603309393,1
remind-99,1,2022-11-03_13h59.48.817,task-selfref_run-01,60.142199141980065,1667498763.398332,263.4422814026475,fixation,1,,,
remind-99,1,2022-11-03_13h59.48.817,task-selfref_run-01,60.142199141980065,1667498763.4539118,263.49816239997745,word_presentation,1,immature,,
remind-99,1,2022-11-03_13h59.48.817,task-selfref_run-01,60.142199141980065,1667498765.0998495,265.14472959935665,response,1,immature,1.70166390016675,2
remind-99,1,2022-11-03_13h59.48.817,task-selfref_run-01,60.142199141980065,1667498773.9213681,273.96532430127263,fixation,1,,,
remind-99,1,2022-11-03_13h59.48.817,task-selfref_run-01,60.142199141980065,1667498776.504517,276.54845920205116,fixation,1,,,
remind-99,1,2022-11-03_13h59.48.817,task-selfref_run-01,60.142199141980065,1667498776.5706513,276.61501340195537,word_presentation,1,energetic,,
remind-99,1,2022-11-03_13h59.48.817,task-selfref_run-01,60.142199141980065,1667498777.50651,277.5505461022258,response,1,energetic,1.0013579986989498,2
remind-99,1,2022-11-03_13h59.48.817,task-selfref_run-01,60.142199141980065,1667498780.7610679,280.8050369992852,fixation,1,,,
remind-99,1,2022-11-03_13h59.48.817,task-selfref_run-01,60.142199141980065,1667498780.8397758,280.88422540202737,word_presentation,1,sluggish,,
remind-99,1,2022-11-03_13h59.48.817,task-selfref_run-01,60.142199141980065,1667498781.9185817,281.96275969967246,response,1,sluggish,1.1570036001503468,1
remind-99,1,2022-11-03_13h59.48.817,task-selfref_run-01,60.142199141980065,1667498784.161035,284.204987000674,fixation,1,,,
remind-99,1,2022-11-03_13h59.48.817,task-selfref_run-01,60.142199141980065,1667498784.237234,284.2816064991057,word_presentation,1,toxic,,
remind-99,1,2022-11-03_13h59.48.817,task-selfref_run-01,60.142199141980065,1667498785.236644,285.28085970133543,response,1,toxic,1.0750737003982067,1
remind-99,1,2022-11-03_13h59.48.817,task-selfref_run-01,60.142199141980065,1667498787.9670503,288.01100439950824,fixation,1,,,
remind-99,1,2022-11-03_13h59.48.817,task-selfref_run-01,60.142199141980065,1667498788.0195577,288.0638273023069,word_presentation,1,outgoing,,
remind-99,1,2022-11-03_13h59.48.817,task-selfref_run-01,60.142199141980065,1667498789.0827982,289.12758420035243,response,1,outgoing,1.1158086992800236,2
remind-99,1,2022-11-03_13h59.48.817,task-selfref_run-01,60.142199141980065,1667498792.4860075,292.5300650000572,fixation,1,,,
remind-99,1,2022-11-03_13h59.48.817,task-selfref_run-01,60.142199141980065,1667498792.5364618,292.5807177014649,word_presentation,1,negligent,,
remind-99,1,2022-11-03_13h59.48.817,task-selfref_run-01,60.142199141980065,1667498793.606722,293.65156370028853,response,1,negligent,1.1207432001829147,1
remind-99,1,2022-11-03_13h59.48.817,task-selfref_run-01,60.142199141980065,1667498796.0040615,296.04811679944396,fixation,1,,,
remind-99,1,2022-11-03_13h59.48.817,task-selfref_run-01,60.142199141980065,1667498796.0859132,296.1302127018571,word_presentation,1,glorious,,
remind-99,1,2022-11-03_13h59.48.817,task-selfref_run-01,60.142199141980065,1667498797.7932398,297.83743650093675,response,1,glorious,1.788543600589037,1
remind-99,1,2022-11-03_13h59.48.817,task-selfref_run-01,60.142199141980065,1667498806.520824,306.5648509003222,fixation,1,,,
remind-99,1,2022-11-03_13h59.48.817,task-selfref_run-01,60.142199141980065,1667498809.1202705,309.16421150043607,fixation,1,,,
remind-99,1,2022-11-03_13h59.48.817,task-selfref_run-01,60.142199141980065,1667498809.185856,309.2302125990391,word_presentation,1,bland,,
remind-99,1,2022-11-03_13h59.48.817,task-selfref_run-01,60.142199141980065,1667498810.3566232,310.4014771990478,response,1,bland,1.236387599259615,1
remind-99,1,2022-11-03_13h59.48.817,task-selfref_run-01,60.142199141980065,1667498812.246828,312.2907836996019,fixation,1,,,
remind-99,1,2022-11-03_13h59.48.817,task-selfref_run-01,60.142199141980065,1667498812.303307,312.3477438017726,word_presentation,1,sinful,,
remind-99,1,2022-11-03_13h59.48.817,task-selfref_run-01,60.142199141980065,1667498812.983483,313.02755039930344,response,1,sinful,0.7360013984143734,1
remind-99,1,2022-11-03_13h59.48.817,task-selfref_run-01,60.142199141980065,1667498816.8298938,316.8738436996937,fixation,1,,,
remind-99,1,2022-11-03_13h59.48.817,task-selfref_run-01,60.142199141980065,1667498816.8857422,316.9300752989948,word_presentation,1,sophisticated,,
remind-99,1,2022-11-03_13h59.48.817,task-selfref_run-01,60.142199141980065,1667498818.0395055,318.08353520184755,response,1,sophisticated,1.2088256999850273,2
remind-99,1,2022-11-03_13h59.48.817,task-selfref_run-01,60.142199141980065,1667498822.2332394,322.2771806009114,fixation,1,,,
remind-99,1,2022-11-03_13h59.48.817,task-selfref_run-01,60.142199141980065,1667498822.3022447,322.3465818017721,word_presentation,1,vindictive,,
remind-99,1,2022-11-03_13h59.48.817,task-selfref_run-01,60.142199141980065,1667498823.2914689,323.3355944007635,response,1,vindictive,1.0576465986669064,1
remind-99,1,2022-11-03_13h59.48.817,task-selfref_run-01,60.142199141980065,1667498826.4231312,326.46708250045776,fixation,1,,,
remind-99,1,2022-11-03_13h59.48.817,task-selfref_run-01,60.142199141980065,1667498826.4853077,326.5296174995601,word_presentation,1,open,,
remind-99,1,2022-11-03_13h59.48.817,task-selfref_run-01,60.142199141980065,1667498827.1934683,327.23753790184855,response,1,open,0.7697053998708725,2
remind-99,1,2022-11-03_13h59.48.817,task-selfref_run-01,60.142199141980065,1667498829.9156978,329.9601434022188,fixation,1,,,
remind-99,1,2022-11-03_13h59.48.817,task-selfref_run-01,60.142199141980065,1667498829.9679503,330.0121629014611,word_presentation,1,neat,,
remind-99,1,2022-11-03_13h59.48.817,task-selfref_run-01,60.142199141980065,1667498830.9533746,330.99752750247717,response,1,neat,1.0366305001080036,2
